PE UV       SUBTECH     SPECTRUM    ASCII       PEDS        4.00        
   -1
SF4rn.asc
22/02/11
09:22:07.00
22/02/11
09:22:07.00
user
Ref SF4
300.000000
1
Lambda 950
950L1311251
PerkinElmer UV WinLab 7.1.0.68 / 2.02.11 Lambda 900 UV/VIS/NIR, May 23 2018 11:23:04

0
0
3350/servo 860.8/2
0
0
UV/VIS
1
1
1
RBeamAtt,SBeamAtt,multi purpose optical bench
0
0
0
0
Program
Program
3350/servo 860.8/2
3350/1 860.8/1
3350/1 860.8/1
0
4
 
 
 
0
 
860.8
319.2
860.8
Front
100
 
S:100 R:100
 
0
0
0
 
0
 
 
 
0
 
 
0
0
0
0
0
 
 
 
 
0
0


0
0
#HDR
-1
-1
#GR
nm
%T
1.0
0.0
2500.000000
-4.000000
551
8
13.944695
4.165320
#DATA
2500.000000	12.599925
2496.000000	13.551956
2492.000000	12.066489
2488.000000	13.152406
2484.000000	13.031944
2480.000000	13.075450
2476.000000	13.944695
2472.000000	13.718687
2468.000000	13.914736
2464.000000	12.962803
2460.000000	12.236479
2456.000000	13.111565
2452.000000	13.039889
2448.000000	13.468606
2444.000000	12.983480
2440.000000	12.368446
2436.000000	13.276332
2432.000000	13.832795
2428.000000	12.818851
2424.000000	13.683225
2420.000000	13.239791
2416.000000	13.299120
2412.000000	13.568647
2408.000000	13.930790
2404.000000	13.427100
2400.000000	13.177784
2396.000000	13.459992
2392.000000	12.948913
2388.000000	13.538839
2384.000000	13.589072
2380.000000	12.735602
2376.000000	12.724075
2372.000000	13.702085
2368.000000	13.504799
2364.000000	12.417500
2360.000000	12.834360
2356.000000	12.725242
2352.000000	13.265016
2348.000000	13.305886
2344.000000	13.477745
2340.000000	13.475044
2336.000000	12.560751
2332.000000	13.477851
2328.000000	13.695107
2324.000000	13.519098
2320.000000	13.174645
2316.000000	13.244208
2312.000000	13.627924
2308.000000	13.408911
2304.000000	13.176439
2300.000000	12.965429
2296.000000	12.986681
2292.000000	13.215459
2288.000000	12.856953
2284.000000	13.081582
2280.000000	13.484742
2276.000000	13.196798
2272.000000	12.970139
2268.000000	13.217910
2264.000000	13.259148
2260.000000	13.229630
2256.000000	12.770349
2252.000000	13.192104
2248.000000	13.290640
2244.000000	13.232470
2240.000000	13.136472
2236.000000	13.153177
2232.000000	13.333017
2228.000000	13.383005
2224.000000	13.464749
2220.000000	13.198935
2216.000000	13.027166
2212.000000	13.218112
2208.000000	13.234684
2204.000000	13.229617
2200.000000	13.490328
2196.000000	13.114859
2192.000000	13.154235
2188.000000	13.329513
2184.000000	13.268253
2180.000000	13.098782
2176.000000	13.227876
2172.000000	13.272921
2168.000000	13.605675
2164.000000	13.534962
2160.000000	13.258708
2156.000000	13.378104
2152.000000	13.403993
2148.000000	13.455086
2144.000000	13.590114
2140.000000	13.308475
2136.000000	13.204457
2132.000000	13.496248
2128.000000	13.370210
2124.000000	13.260282
2120.000000	13.471907
2116.000000	13.484459
2112.000000	13.467223
2108.000000	13.493789
2104.000000	13.373617
2100.000000	13.265233
2096.000000	13.310768
2092.000000	13.403331
2088.000000	13.249968
2084.000000	13.194141
2080.000000	13.374874
2076.000000	13.343577
2072.000000	13.239083
2068.000000	13.264149
2064.000000	13.177853
2060.000000	13.189256
2056.000000	13.327013
2052.000000	13.336872
2048.000000	13.337872
2044.000000	13.271343
2040.000000	13.259238
2036.000000	13.266946
2032.000000	13.323093
2028.000000	13.503974
2024.000000	13.353245
2020.000000	13.362598
2016.000000	13.392919
2012.000000	13.246136
2008.000000	13.313067
2004.000000	13.319059
2000.000000	13.290603
1996.000000	13.264945
1992.000000	13.277905
1988.000000	13.274176
1984.000000	13.170401
1980.000000	13.075971
1976.000000	13.344425
1972.000000	13.285519
1968.000000	13.267961
1964.000000	13.142599
1960.000000	13.226166
1956.000000	13.296710
1952.000000	13.206077
1948.000000	13.131914
1944.000000	13.158533
1940.000000	13.149811
1936.000000	13.122137
1932.000000	13.275031
1928.000000	13.240550
1924.000000	13.178266
1920.000000	13.191784
1916.000000	13.071630
1912.000000	13.231826
1908.000000	13.148054
1904.000000	13.015021
1900.000000	13.190518
1896.000000	13.107925
1892.000000	13.210036
1888.000000	13.242792
1884.000000	13.264685
1880.000000	13.129683
1876.000000	13.160672
1872.000000	13.174216
1868.000000	13.208434
1864.000000	13.154143
1860.000000	13.164200
1856.000000	13.228143
1852.000000	13.087486
1848.000000	13.100281
1844.000000	13.177461
1840.000000	13.280022
1836.000000	13.156544
1832.000000	13.186159
1828.000000	13.160250
1824.000000	13.074971
1820.000000	13.241294
1816.000000	13.148460
1812.000000	13.217260
1808.000000	13.131135
1804.000000	13.135334
1800.000000	13.312223
1796.000000	13.240213
1792.000000	13.089577
1788.000000	13.161342
1784.000000	13.024268
1780.000000	13.041013
1776.000000	13.134706
1772.000000	13.203256
1768.000000	13.348546
1764.000000	13.334336
1760.000000	13.085692
1756.000000	13.307914
1752.000000	13.137750
1748.000000	13.261742
1744.000000	13.273513
1740.000000	13.187012
1736.000000	13.215683
1732.000000	13.379953
1728.000000	13.372633
1724.000000	13.244061
1720.000000	13.143802
1716.000000	13.220277
1712.000000	13.259706
1708.000000	13.164624
1704.000000	13.065373
1700.000000	13.241049
1696.000000	13.054851
1692.000000	13.200780
1688.000000	13.202002
1684.000000	13.229384
1680.000000	13.097746
1676.000000	13.122709
1672.000000	13.242960
1668.000000	13.187671
1664.000000	13.282188
1660.000000	13.286217
1656.000000	13.068555
1652.000000	13.281155
1648.000000	13.230276
1644.000000	13.259975
1640.000000	12.994401
1636.000000	13.198366
1632.000000	13.123372
1628.000000	13.114996
1624.000000	13.395167
1620.000000	13.209643
1616.000000	13.321734
1612.000000	13.178829
1608.000000	13.221727
1604.000000	13.283336
1600.000000	13.042336
1596.000000	13.200365
1592.000000	13.178862
1588.000000	13.254661
1584.000000	13.217113
1580.000000	13.198828
1576.000000	13.118234
1572.000000	13.092217
1568.000000	12.920747
1564.000000	13.035568
1560.000000	13.028510
1556.000000	13.320028
1552.000000	13.212659
1548.000000	13.164241
1544.000000	13.173473
1540.000000	13.075662
1536.000000	13.194036
1532.000000	13.099904
1528.000000	13.081351
1524.000000	13.129698
1520.000000	13.116904
1516.000000	13.109265
1512.000000	13.146461
1508.000000	13.050272
1504.000000	13.145542
1500.000000	13.257612
1496.000000	13.114536
1492.000000	13.021903
1488.000000	13.008245
1484.000000	13.064223
1480.000000	13.129341
1476.000000	13.109820
1472.000000	13.097463
1468.000000	13.213935
1464.000000	13.029670
1460.000000	12.911692
1456.000000	13.058081
1452.000000	13.097779
1448.000000	13.035153
1444.000000	13.039732
1440.000000	13.088951
1436.000000	13.102368
1432.000000	12.913067
1428.000000	13.041526
1424.000000	13.074610
1420.000000	12.952106
1416.000000	12.991716
1412.000000	13.141127
1408.000000	13.100214
1404.000000	12.926601
1400.000000	13.016740
1396.000000	13.098018
1392.000000	12.965106
1388.000000	12.976041
1384.000000	13.021521
1380.000000	12.922046
1376.000000	12.988934
1372.000000	13.072393
1368.000000	13.046079
1364.000000	12.950238
1360.000000	12.927198
1356.000000	12.913848
1352.000000	12.909146
1348.000000	12.991060
1344.000000	13.044651
1340.000000	13.116108
1336.000000	13.084183
1332.000000	12.857900
1328.000000	12.971765
1324.000000	13.062432
1320.000000	13.115523
1316.000000	13.206827
1312.000000	13.098681
1308.000000	12.904483
1304.000000	12.964733
1300.000000	12.933520
1296.000000	12.903085
1292.000000	13.070479
1288.000000	13.035067
1284.000000	13.034719
1280.000000	12.970910
1276.000000	12.933147
1272.000000	13.010578
1268.000000	12.949740
1264.000000	12.849352
1260.000000	12.823796
1256.000000	12.857529
1252.000000	12.917858
1248.000000	12.811804
1244.000000	12.851497
1240.000000	12.859849
1236.000000	12.847884
1232.000000	12.845587
1228.000000	12.895144
1224.000000	12.885686
1220.000000	12.877736
1216.000000	12.916124
1212.000000	12.784809
1208.000000	12.682766
1204.000000	12.929002
1200.000000	13.015527
1196.000000	12.984982
1192.000000	12.880007
1188.000000	12.857033
1184.000000	12.905249
1180.000000	12.870641
1176.000000	12.873402
1172.000000	12.826259
1168.000000	12.900382
1164.000000	12.781112
1160.000000	12.742031
1156.000000	12.995065
1152.000000	12.665079
1148.000000	12.642373
1144.000000	12.686067
1140.000000	12.803559
1136.000000	12.721828
1132.000000	12.808799
1128.000000	12.850081
1124.000000	12.736463
1120.000000	12.678226
1116.000000	12.624943
1112.000000	12.598127
1108.000000	12.370262
1104.000000	12.754264
1100.000000	12.942067
1096.000000	12.709409
1092.000000	12.712671
1088.000000	12.588426
1084.000000	12.678579
1080.000000	12.492837
1076.000000	12.636328
1072.000000	12.747826
1068.000000	12.779366
1064.000000	12.613385
1060.000000	12.516620
1056.000000	12.563507
1052.000000	12.686869
1048.000000	12.725945
1044.000000	12.597777
1040.000000	12.681535
1036.000000	12.707508
1032.000000	12.616494
1028.000000	12.457902
1024.000000	12.674987
1020.000000	12.758321
1016.000000	12.647030
1012.000000	12.478167
1008.000000	12.703000
1004.000000	12.719822
1000.000000	12.482769
996.000000	12.475436
992.000000	12.756638
988.000000	12.490251
984.000000	12.387442
980.000000	12.438375
976.000000	12.513093
972.000000	12.651581
968.000000	12.644344
964.000000	12.443736
960.000000	12.575517
956.000000	12.416966
952.000000	12.510272
948.000000	12.505364
944.000000	12.762822
940.000000	12.500046
936.000000	12.458256
932.000000	12.405651
928.000000	12.426322
924.000000	12.778254
920.000000	12.362400
916.000000	12.432698
912.000000	12.588676
908.000000	12.406378
904.000000	12.392889
900.000000	12.558558
896.000000	12.386133
892.000000	12.488878
888.000000	12.355088
884.000000	12.115207
880.000000	12.086772
876.000000	12.255036
872.000000	12.422159
868.000000	12.355906
864.000000	12.488506
860.000000	12.042286
856.000000	12.014684
852.000000	11.989342
848.000000	11.924812
844.000000	11.928590
840.000000	11.961485
836.000000	11.946119
832.000000	11.905814
828.000000	11.858851
824.000000	11.838406
820.000000	11.852389
816.000000	11.846854
812.000000	11.850123
808.000000	11.814197
804.000000	11.792723
800.000000	11.790274
796.000000	11.795940
792.000000	11.761517
788.000000	11.729863
784.000000	11.726762
780.000000	11.704641
776.000000	11.694948
772.000000	11.669055
768.000000	11.643283
764.000000	11.632196
760.000000	11.631780
756.000000	11.617034
752.000000	11.609332
748.000000	11.593310
744.000000	11.540962
740.000000	11.543673
736.000000	11.529587
732.000000	11.497499
728.000000	11.475253
724.000000	11.467392
720.000000	11.444165
716.000000	11.420403
712.000000	11.414582
708.000000	11.390576
704.000000	11.360592
700.000000	11.338281
696.000000	11.329760
692.000000	11.296586
688.000000	11.286651
684.000000	11.266039
680.000000	11.258283
676.000000	11.231942
672.000000	11.201655
668.000000	11.176576
664.000000	11.153239
660.000000	11.127976
656.000000	11.108843
652.000000	11.086622
648.000000	11.061128
644.000000	11.039423
640.000000	11.019949
636.000000	10.986690
632.000000	10.957662
628.000000	10.937696
624.000000	10.913117
620.000000	10.884003
616.000000	10.859289
612.000000	10.831069
608.000000	10.803544
604.000000	10.772774
600.000000	10.740637
596.000000	10.711452
592.000000	10.685693
588.000000	10.653640
584.000000	10.624708
580.000000	10.596125
576.000000	10.563919
572.000000	10.531465
568.000000	10.495628
564.000000	10.464132
560.000000	10.422529
556.000000	10.388001
552.000000	10.351503
548.000000	10.324327
544.000000	10.289860
540.000000	10.246804
536.000000	10.213895
532.000000	10.171099
528.000000	10.131717
524.000000	10.091644
520.000000	10.049134
516.000000	10.009751
512.000000	9.969866
508.000000	9.929124
504.000000	9.896240
500.000000	9.868459
496.000000	9.838993
492.000000	9.811394
488.000000	9.779229
484.000000	9.730935
480.000000	9.673790
476.000000	9.614945
472.000000	9.562353
468.000000	9.506748
464.000000	9.455173
460.000000	9.414445
456.000000	9.381139
452.000000	9.351112
448.000000	9.312584
444.000000	9.272352
440.000000	9.217216
436.000000	9.166429
432.000000	9.121724
428.000000	9.074865
424.000000	9.027225
420.000000	8.971316
416.000000	8.913882
412.000000	8.854220
408.000000	8.798374
404.000000	8.741043
400.000000	8.668475
396.000000	8.596179
392.000000	8.530284
388.000000	8.453032
384.000000	8.359991
380.000000	8.261725
376.000000	8.145689
372.000000	8.006649
368.000000	7.843408
364.000000	7.622677
360.000000	7.340065
356.000000	6.955154
352.000000	6.432830
348.000000	5.828993
344.000000	5.202619
340.000000	4.744374
336.000000	4.503897
332.000000	4.425079
328.000000	4.377689
324.000000	4.334237
320.000000	4.320711
316.000000	4.314486
312.000000	4.288104
308.000000	4.242146
304.000000	4.201289
300.000000	4.165320
