PE IR                   SPECTRUM    ASCII       PEDS        1.60        
  -1
~SP.SP
22/02/22
09:53:28.00
22/02/22
09:53:28.00
Administrator

650.000000
4









SPECTRUM 100,CPU32 MAIN 00.02.7000 27-JANUARY-2006 11:32:41
MCT
MIR
OPTKBR
76073
1.000000

4.000000
STRONG
RATIO
SPECTRUM
MAGNITUDE
MIR INT SPHERE
DOUBLE

COMBINED


0


#HDR
-1
-1
#GR
CM-1
%T
0.00002384185791015625
0.0
4000.000000
-1.000000
3351
8
91.296815
83.849867
#DATA
4000.000000	85.983237 
3999.000000	85.942683 
3998.000000	85.901356 
3997.000000	85.884350 
3996.000000	85.925709 
3995.000000	85.945444 
3994.000000	85.928045 
3993.000000	85.871951 
3992.000000	85.816256 
3991.000000	85.803973 
3990.000000	85.839730 
3989.000000	85.885571 
3988.000000	85.899283 
3987.000000	85.875025 
3986.000000	85.846342 
3985.000000	85.851211 
3984.000000	85.894638 
3983.000000	85.945696 
3982.000000	85.969854 
3981.000000	85.962294 
3980.000000	85.946841 
3979.000000	85.945952 
3978.000000	85.958052 
3977.000000	85.963973 
3976.000000	85.949152 
3975.000000	85.915792 
3974.000000	85.876864 
3973.000000	85.843238 
3972.000000	85.817739 
3971.000000	85.798742 
3970.000000	85.787847 
3969.000000	85.792451 
3968.000000	85.819397 
3967.000000	85.865801 
3966.000000	85.917315 
3965.000000	85.956763 
3964.000000	85.973351 
3963.000000	85.965203 
3962.000000	85.937250 
3961.000000	85.899752 
3960.000000	85.866595 
3959.000000	85.850481 
3958.000000	85.858246 
3957.000000	85.888736 
3956.000000	85.933920 
3955.000000	85.981655 
3954.000000	86.019270 
3953.000000	86.037454 
3952.000000	86.031051 
3951.000000	85.998176 
3950.000000	85.942109 
3949.000000	85.875634 
3948.000000	85.820666 
3947.000000	85.797783 
3946.000000	85.812780 
3945.000000	85.852604 
3944.000000	85.893502 
3943.000000	85.916042 
3942.000000	85.919235 
3941.000000	85.921091 
3940.000000	85.939463 
3939.000000	85.970852 
3938.000000	85.995768 
3937.000000	86.002648 
3936.000000	86.000328 
3935.000000	86.004009 
3934.000000	86.013334 
3933.000000	86.013586 
3932.000000	85.997242 
3931.000000	85.976266 
3930.000000	85.966958 
3929.000000	85.968958 
3928.000000	85.968772 
3927.000000	85.956306 
3926.000000	85.933495 
3925.000000	85.908897 
3924.000000	85.887720 
3923.000000	85.870532 
3922.000000	85.855691 
3921.000000	85.840592 
3920.000000	85.824833 
3919.000000	85.813125 
3918.000000	85.810502 
3917.000000	85.814000 
3916.000000	85.813516 
3915.000000	85.805052 
3914.000000	85.797311 
3913.000000	85.802207 
3912.000000	85.822117 
3911.000000	85.845613 
3910.000000	85.856027 
3909.000000	85.843089 
3908.000000	85.809974 
3907.000000	85.770276 
3906.000000	85.736071 
3905.000000	85.710700 
3904.000000	85.692083 
3903.000000	85.686895 
3902.000000	85.714219 
3901.000000	85.778118 
3900.000000	85.846151 
3899.000000	85.873604 
3898.000000	85.850524 
3897.000000	85.812882 
3896.000000	85.802969 
3895.000000	85.833099 
3894.000000	85.889855 
3893.000000	85.950641 
3892.000000	85.990443 
3891.000000	85.981568 
3890.000000	85.917555 
3889.000000	85.833586 
3888.000000	85.778981 
3887.000000	85.778930 
3886.000000	85.822826 
3885.000000	85.875614 
3884.000000	85.914051 
3883.000000	85.946525 
3882.000000	85.987819 
3881.000000	86.031503 
3880.000000	86.054720 
3879.000000	86.047101 
3878.000000	86.026670 
3877.000000	86.011983 
3876.000000	85.997003 
3875.000000	85.962435 
3874.000000	85.900830 
3873.000000	85.836175 
3872.000000	85.813343 
3871.000000	85.851825 
3870.000000	85.912566 
3869.000000	85.935877 
3868.000000	85.923350 
3867.000000	85.932130 
3866.000000	85.992199 
3865.000000	86.072942 
3864.000000	86.115190 
3863.000000	86.085919 
3862.000000	86.005247 
3861.000000	85.917592 
3860.000000	85.859729 
3859.000000	85.849782 
3858.000000	85.886748 
3857.000000	85.950388 
3856.000000	86.004290 
3855.000000	86.020170 
3854.000000	86.017059 
3853.000000	86.027076 
3852.000000	86.042130 
3851.000000	86.056925 
3850.000000	86.071832 
3849.000000	86.071239 
3848.000000	86.046097 
3847.000000	86.002461 
3846.000000	85.956482 
3845.000000	85.918506 
3844.000000	85.886202 
3843.000000	85.853861 
3842.000000	85.823815 
3841.000000	85.804449 
3840.000000	85.803017 
3839.000000	85.819460 
3838.000000	85.850311 
3837.000000	85.893533 
3836.000000	85.944773 
3835.000000	85.997579 
3834.000000	86.042511 
3833.000000	86.066218 
3832.000000	86.058932 
3831.000000	86.025206 
3830.000000	85.987529 
3829.000000	85.970659 
3828.000000	85.977537 
3827.000000	85.983787 
3826.000000	85.962892 
3825.000000	85.918675 
3824.000000	85.888181 
3823.000000	85.907055 
3822.000000	85.976994 
3821.000000	86.049798 
3820.000000	86.071842 
3819.000000	86.065254 
3818.000000	86.089202 
3817.000000	86.146879 
3816.000000	86.189478 
3815.000000	86.183129 
3814.000000	86.151306 
3813.000000	86.134281 
3812.000000	86.131865 
3811.000000	86.116685 
3810.000000	86.079117 
3809.000000	86.041520 
3808.000000	86.030296 
3807.000000	86.040811 
3806.000000	86.046657 
3805.000000	86.052056 
3804.000000	86.093985 
3803.000000	86.181880 
3802.000000	86.275522 
3801.000000	86.315450 
3800.000000	86.293014 
3799.000000	86.264546 
3798.000000	86.264715 
3797.000000	86.264048 
3796.000000	86.216723 
3795.000000	86.121293 
3794.000000	86.024977 
3793.000000	85.974167 
3792.000000	85.978929 
3791.000000	86.018138 
3790.000000	86.061331 
3789.000000	86.087686 
3788.000000	86.099344 
3787.000000	86.118815 
3786.000000	86.162927 
3785.000000	86.213701 
3784.000000	86.227192 
3783.000000	86.181407 
3782.000000	86.105898 
3781.000000	86.055578 
3780.000000	86.059946 
3779.000000	86.095843 
3778.000000	86.116085 
3777.000000	86.101327 
3776.000000	86.064498 
3775.000000	86.017845 
3774.000000	85.962203 
3773.000000	85.900120 
3772.000000	85.843263 
3771.000000	85.802018 
3770.000000	85.773136 
3769.000000	85.747068 
3768.000000	85.733761 
3767.000000	85.756765 
3766.000000	85.816501 
3765.000000	85.881735 
3764.000000	85.919891 
3763.000000	85.926164 
3762.000000	85.914869 
3761.000000	85.897472 
3760.000000	85.882660 
3759.000000	85.880843 
3758.000000	85.896309 
3757.000000	85.919920 
3756.000000	85.939899 
3755.000000	85.955296 
3754.000000	85.972283 
3753.000000	85.993802 
3752.000000	86.017550 
3751.000000	86.032080 
3750.000000	86.009625 
3749.000000	85.938165 
3748.000000	85.856363 
3747.000000	85.820877 
3746.000000	85.853860 
3745.000000	85.925512 
3744.000000	85.966980 
3743.000000	85.945727 
3742.000000	85.907480 
3741.000000	85.892438 
3740.000000	85.885405 
3739.000000	85.850201 
3738.000000	85.771925 
3737.000000	85.678411 
3736.000000	85.619916 
3735.000000	85.624954 
3734.000000	85.676871 
3733.000000	85.736056 
3732.000000	85.768212 
3731.000000	85.765258 
3730.000000	85.750902 
3729.000000	85.750624 
3728.000000	85.761272 
3727.000000	85.757099 
3726.000000	85.722900 
3725.000000	85.678648 
3724.000000	85.662274 
3723.000000	85.694498 
3722.000000	85.768304 
3721.000000	85.865201 
3720.000000	85.968687 
3719.000000	86.057518 
3718.000000	86.107869 
3717.000000	86.109834 
3716.000000	86.075875 
3715.000000	86.026918 
3714.000000	85.970798 
3713.000000	85.905551 
3712.000000	85.844018 
3711.000000	85.815179 
3710.000000	85.831509 
3709.000000	85.871528 
3708.000000	85.900969 
3707.000000	85.900885 
3706.000000	85.876817 
3705.000000	85.850620 
3704.000000	85.842607 
3703.000000	85.855457 
3702.000000	85.871326 
3701.000000	85.869003 
3700.000000	85.853371 
3699.000000	85.855370 
3698.000000	85.895576 
3697.000000	85.961579 
3696.000000	86.019627 
3695.000000	86.042576 
3694.000000	86.027611 
3693.000000	85.991470 
3692.000000	85.961084 
3691.000000	85.962827 
3690.000000	86.005840 
3689.000000	86.058865 
3688.000000	86.069936 
3687.000000	86.027598 
3686.000000	85.965660 
3685.000000	85.916685 
3684.000000	85.888711 
3683.000000	85.876227 
3682.000000	85.876791 
3681.000000	85.891620 
3680.000000	85.914124 
3679.000000	85.933890 
3678.000000	85.949017 
3677.000000	85.966562 
3676.000000	85.983280 
3675.000000	85.960428 
3674.000000	85.886098 
3673.000000	85.828984 
3672.000000	85.842131 
3671.000000	85.899473 
3670.000000	85.938290 
3669.000000	85.916020 
3668.000000	85.855012 
3667.000000	85.810706 
3666.000000	85.800226 
3665.000000	85.801446 
3664.000000	85.795243 
3663.000000	85.786584 
3662.000000	85.794940 
3661.000000	85.827505 
3660.000000	85.867623 
3659.000000	85.888662 
3658.000000	85.869085 
3657.000000	85.801221 
3656.000000	85.691714 
3655.000000	85.567045 
3654.000000	85.471599 
3653.000000	85.439239 
3652.000000	85.469805 
3651.000000	85.533860 
3650.000000	85.594067 
3649.000000	85.623407 
3648.000000	85.618426 
3647.000000	85.601541 
3646.000000	85.601477 
3645.000000	85.630684 
3644.000000	85.677603 
3643.000000	85.714378 
3642.000000	85.718582 
3641.000000	85.692526 
3640.000000	85.660875 
3639.000000	85.647060 
3638.000000	85.651594 
3637.000000	85.657987 
3636.000000	85.650915 
3635.000000	85.623970 
3634.000000	85.577341 
3633.000000	85.517839 
3632.000000	85.458012 
3631.000000	85.403928 
3630.000000	85.351878 
3629.000000	85.296557 
3628.000000	85.236261 
3627.000000	85.191162 
3626.000000	85.188286 
3625.000000	85.217310 
3624.000000	85.250513 
3623.000000	85.277255 
3622.000000	85.306237 
3621.000000	85.346293 
3620.000000	85.390667 
3619.000000	85.417574 
3618.000000	85.411660 
3617.000000	85.382817 
3616.000000	85.350924 
3615.000000	85.322935 
3614.000000	85.293707 
3613.000000	85.254946 
3612.000000	85.205476 
3611.000000	85.158548 
3610.000000	85.131843 
3609.000000	85.130809 
3608.000000	85.141439 
3607.000000	85.142939 
3606.000000	85.136009 
3605.000000	85.143770 
3604.000000	85.181747 
3603.000000	85.237631 
3602.000000	85.277629 
3601.000000	85.272559 
3600.000000	85.221095 
3599.000000	85.147763 
3598.000000	85.080327 
3597.000000	85.032618 
3596.000000	85.005823 
3595.000000	84.997804 
3594.000000	85.002058 
3593.000000	85.006921 
3592.000000	85.004111 
3591.000000	84.993958 
3590.000000	84.981058 
3589.000000	84.969163 
3588.000000	84.959050 
3587.000000	84.952047 
3586.000000	84.959002 
3585.000000	84.994323 
3584.000000	85.047380 
3583.000000	85.084287 
3582.000000	85.082569 
3581.000000	85.054361 
3580.000000	85.031648 
3579.000000	85.034536 
3578.000000	85.057611 
3577.000000	85.083026 
3576.000000	85.096138 
3575.000000	85.087272 
3574.000000	85.049296 
3573.000000	84.979256 
3572.000000	84.883387 
3571.000000	84.776681 
3570.000000	84.679872 
3569.000000	84.616876 
3568.000000	84.606806 
3567.000000	84.642977 
3566.000000	84.691325 
3565.000000	84.726883 
3564.000000	84.751871 
3563.000000	84.774160 
3562.000000	84.793177 
3561.000000	84.805220 
3560.000000	84.811950 
3559.000000	84.818528 
3558.000000	84.825184 
3557.000000	84.824226 
3556.000000	84.808441 
3555.000000	84.782391 
3554.000000	84.764108 
3553.000000	84.771776 
3552.000000	84.806740 
3551.000000	84.852845 
3550.000000	84.892409 
3549.000000	84.919327 
3548.000000	84.937007 
3547.000000	84.949180 
3546.000000	84.953200 
3545.000000	84.940965 
3544.000000	84.904540 
3543.000000	84.841418 
3542.000000	84.757634 
3541.000000	84.669453 
3540.000000	84.599599 
3539.000000	84.564664 
3538.000000	84.562205 
3537.000000	84.572856 
3536.000000	84.576958 
3535.000000	84.570423 
3534.000000	84.561540 
3533.000000	84.556739 
3532.000000	84.554323 
3531.000000	84.551712 
3530.000000	84.552540 
3529.000000	84.562682 
3528.000000	84.580113 
3527.000000	84.592035 
3526.000000	84.583811 
3525.000000	84.551179 
3524.000000	84.504283 
3523.000000	84.461326 
3522.000000	84.437456 
3521.000000	84.438579 
3520.000000	84.462155 
3519.000000	84.499999 
3518.000000	84.540427 
3517.000000	84.574743 
3516.000000	84.603936 
3515.000000	84.634420 
3514.000000	84.663246 
3513.000000	84.674466 
3512.000000	84.658584 
3511.000000	84.631203 
3510.000000	84.620791 
3509.000000	84.635498 
3508.000000	84.654568 
3507.000000	84.655295 
3506.000000	84.633972 
3505.000000	84.594256 
3504.000000	84.530667 
3503.000000	84.440219 
3502.000000	84.345568 
3501.000000	84.287250 
3500.000000	84.287416 
3499.000000	84.330669 
3498.000000	84.380668 
3497.000000	84.406742 
3496.000000	84.399033 
3495.000000	84.370714 
3494.000000	84.348741 
3493.000000	84.352173 
3492.000000	84.371844 
3491.000000	84.377652 
3490.000000	84.352292 
3489.000000	84.314557 
3488.000000	84.301179 
3487.000000	84.327052 
3486.000000	84.371976 
3485.000000	84.404694 
3484.000000	84.410116 
3483.000000	84.391876 
3482.000000	84.360528 
3481.000000	84.327539 
3480.000000	84.306297 
3479.000000	84.307988 
3478.000000	84.331420 
3477.000000	84.360050 
3476.000000	84.373717 
3475.000000	84.364374 
3474.000000	84.339564 
3473.000000	84.310295 
3472.000000	84.279541 
3471.000000	84.246525 
3470.000000	84.220344 
3469.000000	84.222162 
3468.000000	84.268708 
3467.000000	84.353774 
3466.000000	84.448201 
3465.000000	84.518461 
3464.000000	84.545090 
3463.000000	84.528170 
3462.000000	84.482315 
3461.000000	84.427078 
3460.000000	84.376767 
3459.000000	84.334373 
3458.000000	84.294123 
3457.000000	84.249898 
3456.000000	84.200753 
3455.000000	84.150247 
3454.000000	84.102458 
3453.000000	84.061152 
3452.000000	84.033138 
3451.000000	84.031016 
3450.000000	84.067724 
3449.000000	84.140905 
3448.000000	84.221228 
3447.000000	84.264873 
3446.000000	84.249666 
3445.000000	84.198920 
3444.000000	84.161808 
3443.000000	84.170012 
3442.000000	84.215553 
3441.000000	84.264970 
3440.000000	84.288543 
3439.000000	84.275720 
3438.000000	84.231136 
3437.000000	84.167131 
3436.000000	84.101637 
3435.000000	84.054470 
3434.000000	84.035485 
3433.000000	84.034933 
3432.000000	84.031262 
3431.000000	84.013669 
3430.000000	83.995295 
3429.000000	83.999197 
3428.000000	84.032935 
3427.000000	84.079979 
3426.000000	84.115451 
3425.000000	84.126778 
3424.000000	84.119622 
3423.000000	84.108522 
3422.000000	84.103145 
3421.000000	84.100273 
3420.000000	84.088190 
3419.000000	84.061257 
3418.000000	84.029376 
3417.000000	84.010281 
3416.000000	84.014032 
3415.000000	84.038124 
3414.000000	84.074966 
3413.000000	84.117144 
3412.000000	84.155521 
3411.000000	84.180988 
3410.000000	84.192880 
3409.000000	84.197938 
3408.000000	84.194877 
3407.000000	84.167044 
3406.000000	84.101194 
3405.000000	84.011759 
3404.000000	83.934927 
3403.000000	83.895383 
3402.000000	83.885342 
3401.000000	83.879464 
3400.000000	83.864450 
3399.000000	83.849867 
3398.000000	83.855832 
3397.000000	83.895216 
3396.000000	83.963111 
3395.000000	84.035911 
3394.000000	84.083201 
3393.000000	84.090139 
3392.000000	84.072415 
3391.000000	84.063523 
3390.000000	84.081905 
3389.000000	84.111945 
3388.000000	84.120571 
3387.000000	84.092066 
3386.000000	84.043573 
3385.000000	84.005509 
3384.000000	83.988705 
3383.000000	83.975596 
3382.000000	83.945377 
3381.000000	83.902987 
3380.000000	83.875725 
3379.000000	83.882421 
3378.000000	83.914729 
3377.000000	83.953014 
3376.000000	83.991157 
3375.000000	84.034005 
3374.000000	84.075305 
3373.000000	84.095340 
3372.000000	84.085278 
3371.000000	84.060316 
3370.000000	84.039242 
3369.000000	84.021424 
3368.000000	83.997035 
3367.000000	83.972575 
3366.000000	83.966419 
3365.000000	83.976832 
3364.000000	83.974046 
3363.000000	83.936439 
3362.000000	83.882414 
3361.000000	83.850509 
3360.000000	83.852840 
3359.000000	83.865299 
3358.000000	83.864877 
3357.000000	83.860673 
3356.000000	83.879196 
3355.000000	83.929973 
3354.000000	83.997693 
3353.000000	84.063850 
3352.000000	84.122544 
3351.000000	84.174280 
3350.000000	84.216860 
3349.000000	84.248268 
3348.000000	84.269605 
3347.000000	84.276858 
3346.000000	84.256385 
3345.000000	84.201865 
3344.000000	84.135747 
3343.000000	84.100068 
3342.000000	84.116214 
3341.000000	84.159176 
3340.000000	84.180400 
3339.000000	84.155828 
3338.000000	84.104328 
3337.000000	84.059812 
3336.000000	84.035385 
3335.000000	84.019666 
3334.000000	84.000598 
3333.000000	83.981272 
3332.000000	83.971845 
3331.000000	83.974196 
3330.000000	83.979594 
3329.000000	83.979352 
3328.000000	83.974293 
3327.000000	83.973298 
3326.000000	83.983073 
3325.000000	83.999490 
3324.000000	84.009522 
3323.000000	84.003138 
3322.000000	83.983450 
3321.000000	83.964392 
3320.000000	83.958734 
3319.000000	83.968925 
3318.000000	83.988783 
3317.000000	84.011805 
3316.000000	84.036173 
3315.000000	84.062824 
3314.000000	84.091606 
3313.000000	84.121700 
3312.000000	84.154846 
3311.000000	84.193477 
3310.000000	84.231952 
3309.000000	84.252658 
3308.000000	84.239034 
3307.000000	84.196270 
3306.000000	84.154231 
3305.000000	84.143836 
3304.000000	84.170760 
3303.000000	84.214535 
3302.000000	84.250503 
3301.000000	84.267971 
3300.000000	84.268462 
3299.000000	84.254831 
3298.000000	84.227332 
3297.000000	84.187127 
3296.000000	84.138922 
3295.000000	84.090744 
3294.000000	84.053828 
3293.000000	84.040655 
3292.000000	84.057607 
3291.000000	84.096967 
3290.000000	84.139052 
3289.000000	84.166803 
3288.000000	84.180540 
3287.000000	84.197804 
3286.000000	84.236720 
3285.000000	84.297770 
3284.000000	84.361485 
3283.000000	84.403714 
3282.000000	84.413797 
3281.000000	84.400101 
3280.000000	84.380895 
3279.000000	84.370405 
3278.000000	84.370466 
3277.000000	84.372689 
3276.000000	84.369088 
3275.000000	84.360909 
3274.000000	84.354047 
3273.000000	84.344014 
3272.000000	84.310702 
3271.000000	84.237055 
3270.000000	84.135995 
3269.000000	84.053731 
3268.000000	84.039317 
3267.000000	84.107083 
3266.000000	84.227557 
3265.000000	84.353535 
3264.000000	84.453145 
3263.000000	84.518260 
3262.000000	84.548483 
3261.000000	84.538995 
3260.000000	84.490221 
3259.000000	84.421928 
3258.000000	84.364565 
3257.000000	84.333187 
3256.000000	84.317976 
3255.000000	84.305721 
3254.000000	84.302853 
3253.000000	84.327648 
3252.000000	84.382661 
3251.000000	84.446262 
3250.000000	84.493846 
3249.000000	84.519661 
3248.000000	84.534053 
3247.000000	84.545106 
3246.000000	84.549739 
3245.000000	84.543020 
3244.000000	84.532004 
3243.000000	84.535619 
3242.000000	84.567113 
3241.000000	84.616239 
3240.000000	84.653425 
3239.000000	84.655565 
3238.000000	84.625114 
3237.000000	84.580473 
3236.000000	84.534806 
3235.000000	84.494789 
3234.000000	84.474256 
3233.000000	84.489652 
3232.000000	84.534292 
3231.000000	84.572119 
3230.000000	84.571934 
3229.000000	84.542349 
3228.000000	84.519773 
3227.000000	84.524093 
3226.000000	84.539586 
3225.000000	84.540783 
3224.000000	84.524237 
3223.000000	84.507265 
3222.000000	84.503142 
3221.000000	84.508209 
3220.000000	84.514038 
3219.000000	84.525054 
3218.000000	84.558187 
3217.000000	84.623359 
3216.000000	84.706458 
3215.000000	84.775155 
3214.000000	84.803497 
3213.000000	84.790224 
3212.000000	84.753599 
3211.000000	84.713943 
3210.000000	84.684956 
3209.000000	84.675468 
3208.000000	84.688659 
3207.000000	84.716406 
3206.000000	84.740421 
3205.000000	84.744561 
3204.000000	84.727496 
3203.000000	84.703187 
3202.000000	84.688982 
3201.000000	84.691373 
3200.000000	84.701645 
3199.000000	84.706595 
3198.000000	84.705084 
3197.000000	84.710974 
3196.000000	84.735756 
3195.000000	84.770839 
3194.000000	84.792747 
3193.000000	84.786199 
3192.000000	84.758270 
3191.000000	84.730351 
3190.000000	84.720744 
3189.000000	84.735586 
3188.000000	84.770887 
3187.000000	84.817706 
3186.000000	84.865782 
3185.000000	84.904965 
3184.000000	84.926700 
3183.000000	84.928019 
3182.000000	84.915536 
3181.000000	84.901395 
3180.000000	84.890169 
3179.000000	84.872273 
3178.000000	84.837798 
3177.000000	84.797732 
3176.000000	84.782955 
3175.000000	84.815577 
3174.000000	84.883544 
3173.000000	84.948229 
3172.000000	84.977337 
3171.000000	84.968640 
3170.000000	84.942734 
3169.000000	84.917887 
3168.000000	84.896787 
3167.000000	84.876574 
3166.000000	84.864112 
3165.000000	84.873036 
3164.000000	84.906102 
3163.000000	84.948196 
3162.000000	84.980445 
3161.000000	84.995147 
3160.000000	84.992700 
3159.000000	84.973080 
3158.000000	84.941932 
3157.000000	84.920995 
3156.000000	84.937280 
3155.000000	84.995685 
3154.000000	85.069272 
3153.000000	85.121185 
3152.000000	85.132347 
3151.000000	85.108355 
3150.000000	85.069389 
3149.000000	85.038378 
3148.000000	85.029450 
3147.000000	85.036963 
3146.000000	85.037798 
3145.000000	85.012404 
3144.000000	84.964800 
3143.000000	84.919086 
3142.000000	84.899241 
3141.000000	84.916744 
3140.000000	84.971961 
3139.000000	85.056166 
3138.000000	85.149243 
3137.000000	85.223777 
3136.000000	85.259592 
3135.000000	85.256177 
3134.000000	85.231749 
3133.000000	85.211885 
3132.000000	85.215815 
3131.000000	85.246131 
3130.000000	85.287365 
3129.000000	85.316825 
3128.000000	85.320724 
3127.000000	85.301316 
3126.000000	85.269653 
3125.000000	85.235174 
3124.000000	85.205275 
3123.000000	85.190084 
3122.000000	85.197468 
3121.000000	85.219623 
3120.000000	85.232532 
3119.000000	85.219220 
3118.000000	85.192799 
3117.000000	85.186502 
3116.000000	85.215928 
3115.000000	85.257162 
3114.000000	85.268401 
3113.000000	85.230799 
3112.000000	85.164180 
3111.000000	85.108566 
3110.000000	85.097417 
3109.000000	85.141847 
3108.000000	85.224491 
3107.000000	85.304737 
3106.000000	85.342317 
3105.000000	85.326821 
3104.000000	85.283718 
3103.000000	85.248436 
3102.000000	85.237321 
3101.000000	85.244207 
3100.000000	85.256716 
3099.000000	85.267717 
3098.000000	85.274703 
3097.000000	85.278128 
3096.000000	85.282297 
3095.000000	85.292059 
3094.000000	85.306804 
3093.000000	85.321477 
3092.000000	85.333128 
3091.000000	85.341304 
3090.000000	85.341522 
3089.000000	85.325451 
3088.000000	85.292196 
3087.000000	85.255383 
3086.000000	85.233229 
3085.000000	85.232010 
3084.000000	85.243724 
3083.000000	85.260126 
3082.000000	85.284312 
3081.000000	85.324410 
3080.000000	85.377098 
3079.000000	85.421869 
3078.000000	85.435278 
3077.000000	85.411929 
3076.000000	85.370798 
3075.000000	85.341618 
3074.000000	85.344705 
3073.000000	85.379313 
3072.000000	85.424900 
3071.000000	85.452802 
3070.000000	85.444037 
3069.000000	85.403761 
3068.000000	85.359115 
3067.000000	85.338397 
3066.000000	85.349623 
3065.000000	85.378836 
3064.000000	85.407287 
3063.000000	85.426546 
3062.000000	85.438049 
3061.000000	85.444488 
3060.000000	85.445597 
3059.000000	85.440064 
3058.000000	85.428520 
3057.000000	85.415339 
3056.000000	85.407950 
3055.000000	85.412482 
3054.000000	85.428878 
3053.000000	85.452196 
3052.000000	85.479037 
3051.000000	85.508709 
3050.000000	85.536016 
3049.000000	85.547502 
3048.000000	85.532188 
3047.000000	85.496900 
3046.000000	85.466102 
3045.000000	85.463030 
3044.000000	85.490363 
3043.000000	85.528232 
3042.000000	85.549922 
3041.000000	85.541474 
3040.000000	85.510126 
3039.000000	85.476142 
3038.000000	85.456189 
3037.000000	85.453976 
3036.000000	85.465654 
3035.000000	85.490503 
3034.000000	85.531626 
3033.000000	85.585101 
3032.000000	85.632744 
3031.000000	85.651295 
3030.000000	85.631905 
3029.000000	85.589839 
3028.000000	85.553086 
3027.000000	85.539505 
3026.000000	85.543534 
3025.000000	85.544559 
3024.000000	85.529463 
3023.000000	85.507507 
3022.000000	85.502163 
3021.000000	85.527677 
3020.000000	85.573838 
3019.000000	85.613683 
3018.000000	85.625657 
3017.000000	85.609516 
3016.000000	85.582752 
3015.000000	85.563411 
3014.000000	85.556160 
3013.000000	85.553594 
3012.000000	85.548158 
3011.000000	85.539968 
3010.000000	85.533035 
3009.000000	85.528399 
3008.000000	85.525170 
3007.000000	85.525998 
3006.000000	85.535112 
3005.000000	85.549700 
3004.000000	85.560059 
3003.000000	85.563528 
3002.000000	85.573052 
3001.000000	85.603119 
3000.000000	85.647450 
2999.000000	85.679163 
2998.000000	85.677984 
2997.000000	85.652502 
2996.000000	85.630942 
2995.000000	85.632008 
2994.000000	85.649519 
2993.000000	85.663596 
2992.000000	85.660243 
2991.000000	85.638177 
2990.000000	85.602694 
2989.000000	85.559365 
2988.000000	85.514184 
2987.000000	85.475754 
2986.000000	85.454308 
2985.000000	85.457530 
2984.000000	85.485311 
2983.000000	85.525679 
2982.000000	85.555474 
2981.000000	85.550544 
2980.000000	85.503274 
2979.000000	85.433991 
2978.000000	85.381020 
2977.000000	85.372804 
2976.000000	85.406158 
2975.000000	85.451542 
2974.000000	85.478550 
2973.000000	85.475643 
2972.000000	85.449999 
2971.000000	85.416647 
2970.000000	85.389166 
2969.000000	85.372934 
2968.000000	85.360760 
2967.000000	85.338487 
2966.000000	85.300701 
2965.000000	85.258832 
2964.000000	85.229266 
2963.000000	85.217230 
2962.000000	85.217766 
2961.000000	85.228075 
2960.000000	85.248411 
2959.000000	85.271863 
2958.000000	85.284838 
2957.000000	85.282237 
2956.000000	85.273434 
2955.000000	85.268371 
2954.000000	85.265182 
2953.000000	85.258111 
2952.000000	85.250716 
2951.000000	85.252092 
2950.000000	85.263022 
2949.000000	85.274997 
2948.000000	85.283620 
2947.000000	85.295874 
2946.000000	85.320206 
2945.000000	85.351187 
2944.000000	85.366865 
2943.000000	85.344543 
2942.000000	85.284680 
2941.000000	85.218761 
2940.000000	85.185129 
2939.000000	85.190340 
2938.000000	85.199068 
2937.000000	85.169957 
2936.000000	85.098149 
2935.000000	85.016122 
2934.000000	84.956210 
2933.000000	84.923652 
2932.000000	84.904526 
2931.000000	84.887089 
2930.000000	84.870278 
2929.000000	84.860330 
2928.000000	84.864657 
2927.000000	84.882936 
2926.000000	84.900639 
2925.000000	84.898410 
2924.000000	84.872586 
2923.000000	84.839265 
2922.000000	84.814033 
2921.000000	84.796554 
2920.000000	84.783027 
2919.000000	84.783902 
2918.000000	84.815907 
2917.000000	84.878826 
2916.000000	84.952342 
2915.000000	85.016170 
2914.000000	85.064375 
2913.000000	85.100025 
2912.000000	85.127468 
2911.000000	85.153485 
2910.000000	85.185502 
2909.000000	85.221490 
2908.000000	85.248058 
2907.000000	85.256213 
2906.000000	85.254539 
2905.000000	85.259012 
2904.000000	85.272845 
2903.000000	85.286332 
2902.000000	85.296674 
2901.000000	85.317560 
2900.000000	85.359210 
2899.000000	85.407787 
2898.000000	85.432591 
2897.000000	85.416056 
2896.000000	85.371534 
2895.000000	85.329705 
2894.000000	85.313162 
2893.000000	85.326231 
2892.000000	85.362416 
2891.000000	85.411542 
2890.000000	85.458789 
2889.000000	85.485366 
2888.000000	85.479012 
2887.000000	85.446322 
2886.000000	85.412584 
2885.000000	85.406515 
2884.000000	85.440791 
2883.000000	85.503469 
2882.000000	85.566556 
2881.000000	85.604596 
2880.000000	85.607475 
2879.000000	85.579926 
2878.000000	85.534628 
2877.000000	85.488330 
2876.000000	85.457309 
2875.000000	85.447776 
2874.000000	85.450736 
2873.000000	85.453033 
2872.000000	85.452623 
2871.000000	85.455259 
2870.000000	85.456924 
2869.000000	85.442610 
2868.000000	85.409137 
2867.000000	85.377616 
2866.000000	85.371064 
2865.000000	85.385206 
2864.000000	85.394502 
2863.000000	85.386084 
2862.000000	85.374487 
2861.000000	85.379540 
2860.000000	85.400668 
2859.000000	85.420215 
2858.000000	85.425354 
2857.000000	85.419154 
2856.000000	85.412964 
2855.000000	85.414371 
2854.000000	85.423133 
2853.000000	85.434955 
2852.000000	85.447537 
2851.000000	85.462582 
2850.000000	85.481534 
2849.000000	85.501029 
2848.000000	85.515043 
2847.000000	85.520539 
2846.000000	85.519145 
2845.000000	85.516607 
2844.000000	85.525490 
2843.000000	85.563525 
2842.000000	85.637990 
2841.000000	85.728553 
2840.000000	85.794932 
2839.000000	85.809282 
2838.000000	85.778610 
2837.000000	85.735124 
2836.000000	85.711168 
2835.000000	85.726058 
2834.000000	85.783190 
2833.000000	85.865815 
2832.000000	85.939278 
2831.000000	85.973454 
2830.000000	85.968660 
2829.000000	85.951912 
2828.000000	85.944076 
2827.000000	85.936885 
2826.000000	85.907775 
2825.000000	85.852571 
2824.000000	85.797023 
2823.000000	85.776174 
2822.000000	85.805401 
2821.000000	85.870530 
2820.000000	85.941839 
2819.000000	85.996285 
2818.000000	86.028190 
2817.000000	86.043031 
2816.000000	86.045634 
2815.000000	86.036509 
2814.000000	86.016385 
2813.000000	85.989605 
2812.000000	85.962508 
2811.000000	85.941092 
2810.000000	85.929643 
2809.000000	85.927693 
2808.000000	85.927890 
2807.000000	85.921447 
2806.000000	85.908309 
2805.000000	85.898869 
2804.000000	85.903459 
2803.000000	85.922737 
2802.000000	85.950075 
2801.000000	85.978646 
2800.000000	86.001637 
2799.000000	86.009618 
2798.000000	85.996555 
2797.000000	85.970366 
2796.000000	85.951479 
2795.000000	85.955875 
2794.000000	85.981012 
2793.000000	86.010438 
2792.000000	86.030880 
2791.000000	86.042664 
2790.000000	86.055093 
2789.000000	86.074231 
2788.000000	86.095057 
2787.000000	86.103531 
2786.000000	86.087166 
2785.000000	86.046393 
2784.000000	85.997355 
2783.000000	85.962193 
2782.000000	85.954496 
2781.000000	85.971832 
2780.000000	86.000072 
2779.000000	86.024797 
2778.000000	86.041376 
2777.000000	86.057249 
2776.000000	86.083981 
2775.000000	86.124049 
2774.000000	86.164584 
2773.000000	86.186397 
2772.000000	86.180096 
2771.000000	86.152403 
2770.000000	86.117369 
2769.000000	86.085315 
2768.000000	86.061190 
2767.000000	86.048782 
2766.000000	86.051479 
2765.000000	86.068849 
2764.000000	86.095235 
2763.000000	86.121954 
2762.000000	86.140425 
2761.000000	86.145957 
2760.000000	86.141566 
2759.000000	86.136230 
2758.000000	86.135470 
2757.000000	86.134879 
2756.000000	86.127520 
2755.000000	86.117169 
2754.000000	86.117989 
2753.000000	86.138615 
2752.000000	86.171909 
2751.000000	86.204423 
2750.000000	86.231628 
2749.000000	86.256934 
2748.000000	86.277611 
2747.000000	86.280569 
2746.000000	86.257052 
2745.000000	86.217295 
2744.000000	86.184751 
2743.000000	86.174816 
2742.000000	86.182391 
2741.000000	86.190917 
2740.000000	86.190525 
2739.000000	86.185451 
2738.000000	86.185701 
2737.000000	86.194726 
2736.000000	86.204515 
2735.000000	86.200224 
2734.000000	86.171037 
2733.000000	86.121787 
2732.000000	86.076017 
2731.000000	86.062162 
2730.000000	86.091513 
2729.000000	86.149328 
2728.000000	86.208903 
2727.000000	86.251961 
2726.000000	86.274155 
2725.000000	86.277227 
2724.000000	86.265229 
2723.000000	86.247851 
2722.000000	86.238658 
2721.000000	86.245614 
2720.000000	86.266657 
2719.000000	86.294914 
2718.000000	86.322300 
2717.000000	86.336160 
2716.000000	86.321008 
2715.000000	86.272031 
2714.000000	86.205780 
2713.000000	86.152823 
2712.000000	86.138912 
2711.000000	86.171512 
2710.000000	86.236031 
2709.000000	86.299913 
2708.000000	86.328062 
2707.000000	86.307586 
2706.000000	86.259848 
2705.000000	86.222281 
2704.000000	86.215783 
2703.000000	86.233066 
2702.000000	86.255265 
2701.000000	86.270711 
2700.000000	86.276288 
2699.000000	86.271381 
2698.000000	86.258817 
2697.000000	86.247388 
2696.000000	86.245448 
2695.000000	86.252182 
2694.000000	86.259841 
2693.000000	86.263913 
2692.000000	86.267083 
2691.000000	86.273569 
2690.000000	86.284178 
2689.000000	86.298032 
2688.000000	86.315586 
2687.000000	86.337109 
2686.000000	86.358924 
2685.000000	86.373115 
2684.000000	86.372500 
2683.000000	86.357617 
2682.000000	86.339012 
2681.000000	86.330092 
2680.000000	86.335211 
2679.000000	86.345823 
2678.000000	86.350585 
2677.000000	86.347732 
2676.000000	86.344464 
2675.000000	86.345036 
2674.000000	86.344428 
2673.000000	86.335789 
2672.000000	86.321261 
2671.000000	86.313151 
2670.000000	86.325696 
2669.000000	86.364594 
2668.000000	86.418986 
2667.000000	86.461123 
2666.000000	86.460897 
2665.000000	86.410640 
2664.000000	86.336239 
2663.000000	86.277632 
2662.000000	86.255778 
2661.000000	86.261331 
2660.000000	86.273914 
2659.000000	86.283614 
2658.000000	86.290030 
2657.000000	86.289968 
2656.000000	86.278911 
2655.000000	86.264164 
2654.000000	86.265382 
2653.000000	86.295382 
2652.000000	86.344155 
2651.000000	86.386294 
2650.000000	86.402939 
2649.000000	86.394341 
2648.000000	86.374068 
2647.000000	86.356051 
2646.000000	86.347298 
2645.000000	86.348477 
2644.000000	86.357142 
2643.000000	86.369523 
2642.000000	86.381023 
2641.000000	86.387539 
2640.000000	86.387743 
2639.000000	86.383574 
2638.000000	86.378028 
2637.000000	86.373757 
2636.000000	86.374577 
2635.000000	86.385456 
2634.000000	86.407462 
2633.000000	86.433931 
2632.000000	86.455637 
2631.000000	86.469241 
2630.000000	86.476272 
2629.000000	86.475219 
2628.000000	86.462881 
2627.000000	86.446562 
2626.000000	86.445608 
2625.000000	86.470993 
2624.000000	86.506319 
2623.000000	86.519244 
2622.000000	86.494412 
2621.000000	86.448827 
2620.000000	86.412365 
2619.000000	86.399197 
2618.000000	86.401817 
2617.000000	86.406860 
2616.000000	86.409036 
2615.000000	86.410394 
2614.000000	86.412573 
2613.000000	86.413201 
2612.000000	86.408704 
2611.000000	86.399433 
2610.000000	86.392022 
2609.000000	86.395905 
2608.000000	86.416045 
2607.000000	86.448872 
2606.000000	86.485358 
2605.000000	86.516561 
2604.000000	86.535404 
2603.000000	86.536368 
2602.000000	86.518586 
2601.000000	86.490557 
2600.000000	86.468522 
2599.000000	86.466734 
2598.000000	86.487537 
2597.000000	86.518841 
2596.000000	86.540116 
2595.000000	86.534835 
2594.000000	86.504007 
2593.000000	86.468908 
2592.000000	86.454359 
2591.000000	86.465030 
2590.000000	86.481786 
2589.000000	86.484828 
2588.000000	86.475583 
2587.000000	86.470071 
2586.000000	86.475434 
2585.000000	86.482460 
2584.000000	86.480303 
2583.000000	86.468691 
2582.000000	86.453779 
2581.000000	86.442113 
2580.000000	86.443248 
2579.000000	86.467779 
2578.000000	86.512265 
2577.000000	86.551027 
2576.000000	86.554826 
2575.000000	86.519704 
2574.000000	86.471317 
2573.000000	86.440067 
2572.000000	86.436568 
2571.000000	86.450333 
2570.000000	86.464929 
2569.000000	86.471116 
2568.000000	86.469493 
2567.000000	86.465518 
2566.000000	86.464272 
2565.000000	86.470781 
2564.000000	86.492302 
2563.000000	86.532003 
2562.000000	86.575726 
2561.000000	86.592421 
2560.000000	86.559495 
2559.000000	86.489193 
2558.000000	86.422753 
2557.000000	86.396731 
2556.000000	86.418707 
2555.000000	86.472284 
2554.000000	86.534735 
2553.000000	86.587167 
2552.000000	86.618689 
2551.000000	86.630308 
2550.000000	86.632055 
2549.000000	86.630585 
2548.000000	86.621386 
2547.000000	86.597318 
2546.000000	86.562685 
2545.000000	86.533543 
2544.000000	86.522914 
2543.000000	86.528178 
2542.000000	86.534941 
2541.000000	86.533419 
2540.000000	86.529229 
2539.000000	86.534735 
2538.000000	86.549847 
2537.000000	86.557566 
2536.000000	86.543106 
2535.000000	86.512319 
2534.000000	86.484542 
2533.000000	86.471909 
2532.000000	86.474567 
2531.000000	86.492126 
2530.000000	86.525773 
2529.000000	86.566364 
2528.000000	86.592544 
2527.000000	86.587621 
2526.000000	86.552948 
2525.000000	86.503211 
2524.000000	86.456574 
2523.000000	86.430228 
2522.000000	86.433045 
2521.000000	86.456044 
2520.000000	86.479251 
2519.000000	86.493926 
2518.000000	86.509238 
2517.000000	86.532346 
2516.000000	86.555049 
2515.000000	86.569742 
2514.000000	86.585544 
2513.000000	86.613008 
2512.000000	86.640222 
2511.000000	86.641328 
2510.000000	86.608186 
2509.000000	86.560878 
2508.000000	86.526540 
2507.000000	86.517221 
2506.000000	86.526870 
2505.000000	86.539269 
2504.000000	86.538605 
2503.000000	86.521821 
2502.000000	86.502112 
2501.000000	86.494135 
2500.000000	86.497199 
2499.000000	86.499729 
2498.000000	86.496792 
2497.000000	86.494407 
2496.000000	86.499758 
2495.000000	86.516785 
2494.000000	86.547341 
2493.000000	86.584049 
2492.000000	86.605010 
2491.000000	86.592022 
2490.000000	86.556939 
2489.000000	86.535442 
2488.000000	86.548937 
2487.000000	86.583404 
2486.000000	86.610696 
2485.000000	86.619031 
2484.000000	86.615240 
2483.000000	86.607232 
2482.000000	86.595053 
2481.000000	86.576013 
2480.000000	86.552056 
2479.000000	86.533307 
2478.000000	86.534748 
2477.000000	86.562910 
2476.000000	86.604044 
2475.000000	86.633486 
2474.000000	86.640662 
2473.000000	86.637809 
2472.000000	86.641034 
2471.000000	86.652137 
2470.000000	86.664029 
2469.000000	86.673723 
2468.000000	86.680504 
2467.000000	86.678405 
2466.000000	86.661734 
2465.000000	86.635772 
2464.000000	86.613238 
2463.000000	86.600639 
2462.000000	86.593817 
2461.000000	86.585438 
2460.000000	86.571747 
2459.000000	86.554360 
2458.000000	86.541367 
2457.000000	86.544964 
2456.000000	86.570920 
2455.000000	86.608361 
2454.000000	86.633739 
2453.000000	86.627834 
2452.000000	86.591211 
2451.000000	86.546079 
2450.000000	86.522850 
2449.000000	86.538391 
2448.000000	86.581817 
2447.000000	86.623368 
2446.000000	86.640473 
2445.000000	86.634640 
2444.000000	86.623212 
2443.000000	86.620107 
2442.000000	86.626824 
2441.000000	86.635825 
2440.000000	86.636462 
2439.000000	86.621304 
2438.000000	86.593759 
2437.000000	86.569507 
2436.000000	86.565781 
2435.000000	86.587903 
2434.000000	86.626793 
2433.000000	86.666825 
2432.000000	86.694089 
2431.000000	86.700703 
2430.000000	86.686900 
2429.000000	86.660515 
2428.000000	86.633238 
2427.000000	86.615929 
2426.000000	86.614167 
2425.000000	86.623595 
2424.000000	86.630560 
2423.000000	86.624098 
2422.000000	86.609481 
2421.000000	86.604192 
2420.000000	86.618027 
2419.000000	86.642625 
2418.000000	86.662867 
2417.000000	86.671311 
2416.000000	86.667488 
2415.000000	86.651200 
2414.000000	86.625015 
2413.000000	86.599232 
2412.000000	86.586314 
2411.000000	86.591267 
2410.000000	86.611154 
2409.000000	86.639219 
2408.000000	86.663584 
2407.000000	86.667735 
2406.000000	86.643103 
2405.000000	86.601366 
2404.000000	86.566916 
2403.000000	86.556011 
2402.000000	86.567932 
2401.000000	86.594000 
2400.000000	86.626803 
2399.000000	86.659290 
2398.000000	86.682656 
2397.000000	86.690830 
2396.000000	86.686157 
2395.000000	86.678903 
2394.000000	86.680692 
2393.000000	86.695853 
2392.000000	86.716530 
2391.000000	86.728630 
2390.000000	86.725731 
2389.000000	86.715061 
2388.000000	86.706733 
2387.000000	86.700415 
2386.000000	86.687249 
2385.000000	86.662237 
2384.000000	86.629842 
2383.000000	86.600217 
2382.000000	86.586300 
2381.000000	86.601612 
2380.000000	86.650077 
2379.000000	86.715256 
2378.000000	86.768265 
2377.000000	86.791957 
2376.000000	86.792548 
2375.000000	86.785792 
2374.000000	86.784618 
2373.000000	86.801254 
2372.000000	86.840925 
2371.000000	86.878130 
2370.000000	86.861309 
2369.000000	86.770011 
2368.000000	86.657460 
2367.000000	86.603377 
2366.000000	86.632034 
2365.000000	86.706748 
2364.000000	86.793167 
2363.000000	86.876882 
2362.000000	86.927918 
2361.000000	86.908573 
2360.000000	86.820931 
2359.000000	86.725627 
2358.000000	86.689219 
2357.000000	86.719459 
2356.000000	86.779300 
2355.000000	86.822086 
2354.000000	86.829880 
2353.000000	86.816251 
2352.000000	86.802930 
2351.000000	86.803396 
2350.000000	86.811569 
2349.000000	86.826971 
2348.000000	86.855683 
2347.000000	86.892484 
2346.000000	86.917551 
2345.000000	86.893219 
2344.000000	86.818878 
2343.000000	86.732765 
2342.000000	86.690930 
2341.000000	86.722423 
2340.000000	86.800105 
2339.000000	86.873310 
2338.000000	86.894372 
2337.000000	86.854264 
2336.000000	86.783570 
2335.000000	86.746331 
2334.000000	86.781105 
2333.000000	86.870357 
2332.000000	86.936358 
2331.000000	86.929922 
2330.000000	86.861507 
2329.000000	86.799839 
2328.000000	86.786082 
2327.000000	86.812885 
2326.000000	86.852609 
2325.000000	86.877314 
2324.000000	86.876868 
2323.000000	86.849450 
2322.000000	86.811074 
2321.000000	86.782867 
2320.000000	86.767118 
2319.000000	86.761332 
2318.000000	86.766117 
2317.000000	86.797231 
2316.000000	86.842577 
2315.000000	86.872660 
2314.000000	86.861158 
2313.000000	86.829866 
2312.000000	86.812981 
2311.000000	86.817880 
2310.000000	86.810148 
2309.000000	86.769266 
2308.000000	86.712411 
2307.000000	86.674881 
2306.000000	86.666986 
2305.000000	86.677593 
2304.000000	86.693202 
2303.000000	86.709399 
2302.000000	86.714504 
2301.000000	86.696216 
2300.000000	86.655731 
2299.000000	86.618936 
2298.000000	86.609707 
2297.000000	86.629201 
2296.000000	86.656360 
2295.000000	86.673885 
2294.000000	86.681374 
2293.000000	86.688494 
2292.000000	86.702060 
2291.000000	86.721151 
2290.000000	86.741993 
2289.000000	86.760627 
2288.000000	86.774505 
2287.000000	86.780192 
2286.000000	86.774365 
2285.000000	86.756597 
2284.000000	86.733945 
2283.000000	86.716686 
2282.000000	86.707430 
2281.000000	86.696123 
2280.000000	86.673017 
2279.000000	86.646274 
2278.000000	86.637978 
2277.000000	86.659250 
2276.000000	86.694883 
2275.000000	86.720106 
2274.000000	86.725225 
2273.000000	86.717647 
2272.000000	86.704544 
2271.000000	86.686051 
2270.000000	86.664604 
2269.000000	86.648505 
2268.000000	86.642245 
2267.000000	86.643043 
2266.000000	86.651520 
2265.000000	86.675586 
2264.000000	86.714301 
2263.000000	86.746227 
2262.000000	86.748138 
2261.000000	86.723407 
2260.000000	86.701310 
2259.000000	86.704641 
2258.000000	86.729091 
2257.000000	86.756798 
2256.000000	86.778917 
2255.000000	86.796431 
2254.000000	86.805901 
2253.000000	86.799814 
2252.000000	86.781065 
2251.000000	86.767224 
2250.000000	86.773427 
2249.000000	86.796344 
2248.000000	86.817603 
2247.000000	86.820779 
2246.000000	86.801106 
2245.000000	86.765744 
2244.000000	86.731005 
2243.000000	86.715497 
2242.000000	86.726822 
2241.000000	86.752884 
2240.000000	86.771958 
2239.000000	86.773159 
2238.000000	86.763154 
2237.000000	86.753582 
2236.000000	86.749745 
2235.000000	86.753329 
2234.000000	86.766777 
2233.000000	86.787922 
2232.000000	86.806024 
2231.000000	86.810969 
2230.000000	86.803558 
2229.000000	86.791180 
2228.000000	86.777513 
2227.000000	86.763916 
2226.000000	86.756754 
2225.000000	86.762455 
2224.000000	86.775062 
2223.000000	86.779248 
2222.000000	86.769517 
2221.000000	86.759382 
2220.000000	86.766712 
2219.000000	86.794000 
2218.000000	86.826390 
2217.000000	86.846103 
2216.000000	86.847301 
2215.000000	86.839959 
2214.000000	86.840052 
2213.000000	86.852849 
2212.000000	86.866396 
2211.000000	86.865841 
2210.000000	86.852553 
2209.000000	86.841900 
2208.000000	86.842933 
2207.000000	86.850047 
2206.000000	86.856442 
2205.000000	86.863930 
2204.000000	86.872580 
2203.000000	86.871346 
2202.000000	86.851173 
2201.000000	86.822939 
2200.000000	86.810450 
2199.000000	86.825268 
2198.000000	86.855912 
2197.000000	86.880923 
2196.000000	86.885150 
2195.000000	86.864956 
2194.000000	86.828755 
2193.000000	86.796563 
2192.000000	86.789416 
2191.000000	86.809968 
2190.000000	86.836039 
2189.000000	86.840523 
2188.000000	86.818786 
2187.000000	86.792346 
2186.000000	86.785458 
2185.000000	86.802854 
2184.000000	86.831747 
2183.000000	86.859367 
2182.000000	86.881311 
2181.000000	86.894624 
2180.000000	86.892711 
2179.000000	86.872625 
2178.000000	86.842663 
2177.000000	86.816960 
2176.000000	86.804469 
2175.000000	86.806673 
2174.000000	86.821528 
2173.000000	86.842659 
2172.000000	86.857751 
2171.000000	86.856900 
2170.000000	86.843315 
2169.000000	86.828905 
2168.000000	86.819084 
2167.000000	86.809612 
2166.000000	86.799409 
2165.000000	86.797311 
2164.000000	86.811561 
2163.000000	86.838268 
2162.000000	86.863623 
2161.000000	86.873342 
2160.000000	86.859625 
2159.000000	86.826113 
2158.000000	86.788155 
2157.000000	86.760834 
2156.000000	86.744236 
2155.000000	86.728639 
2154.000000	86.715997 
2153.000000	86.723597 
2152.000000	86.758744 
2151.000000	86.801058 
2150.000000	86.822013 
2149.000000	86.816259 
2148.000000	86.802822 
2147.000000	86.799807 
2146.000000	86.809484 
2145.000000	86.826203 
2144.000000	86.847723 
2143.000000	86.876437 
2142.000000	86.914487 
2141.000000	86.957218 
2140.000000	86.988547 
2139.000000	86.988911 
2138.000000	86.956099 
2137.000000	86.914080 
2136.000000	86.890790 
2135.000000	86.888596 
2134.000000	86.886434 
2133.000000	86.869699 
2132.000000	86.846705 
2131.000000	86.834389 
2130.000000	86.839110 
2129.000000	86.856081 
2128.000000	86.878506 
2127.000000	86.900281 
2126.000000	86.914809 
2125.000000	86.918440 
2124.000000	86.914655 
2123.000000	86.911042 
2122.000000	86.911287 
2121.000000	86.910921 
2120.000000	86.901975 
2119.000000	86.883827 
2118.000000	86.869342 
2117.000000	86.875346 
2116.000000	86.903632 
2115.000000	86.935555 
2114.000000	86.949947 
2113.000000	86.942662 
2112.000000	86.924113 
2111.000000	86.903869 
2110.000000	86.886761 
2109.000000	86.879768 
2108.000000	86.890144 
2107.000000	86.914607 
2106.000000	86.938771 
2105.000000	86.949946 
2104.000000	86.945362 
2103.000000	86.928695 
2102.000000	86.907145 
2101.000000	86.893015 
2100.000000	86.898638 
2099.000000	86.924423 
2098.000000	86.956545 
2097.000000	86.979656 
2096.000000	86.988073 
2095.000000	86.984530 
2094.000000	86.974866 
2093.000000	86.965877 
2092.000000	86.961506 
2091.000000	86.957078 
2090.000000	86.941988 
2089.000000	86.912099 
2088.000000	86.876532 
2087.000000	86.849615 
2086.000000	86.838461 
2085.000000	86.839250 
2084.000000	86.843255 
2083.000000	86.846470 
2082.000000	86.854253 
2081.000000	86.873185 
2080.000000	86.896131 
2079.000000	86.903237 
2078.000000	86.886731 
2077.000000	86.869007 
2076.000000	86.881517 
2075.000000	86.926022 
2074.000000	86.970196 
2073.000000	86.983500 
2072.000000	86.965281 
2071.000000	86.932706 
2070.000000	86.896454 
2069.000000	86.859937 
2068.000000	86.831924 
2067.000000	86.825366 
2066.000000	86.844910 
2065.000000	86.882272 
2064.000000	86.921977 
2063.000000	86.949185 
2062.000000	86.958066 
2061.000000	86.957204 
2060.000000	86.960185 
2059.000000	86.965653 
2058.000000	86.956005 
2057.000000	86.924832 
2056.000000	86.895847 
2055.000000	86.900168 
2054.000000	86.939068 
2053.000000	86.983115 
2052.000000	87.007418 
2051.000000	87.013731 
2050.000000	87.016954 
2049.000000	87.025067 
2048.000000	87.037393 
2047.000000	87.049882 
2046.000000	87.055005 
2045.000000	87.044481 
2044.000000	87.018563 
2043.000000	86.987982 
2042.000000	86.963185 
2041.000000	86.946510 
2040.000000	86.936901 
2039.000000	86.934938 
2038.000000	86.937927 
2037.000000	86.936326 
2036.000000	86.923322 
2035.000000	86.906358 
2034.000000	86.902267 
2033.000000	86.919459 
2032.000000	86.948346 
2031.000000	86.970569 
2030.000000	86.975267 
2029.000000	86.965914 
2028.000000	86.954518 
2027.000000	86.950753 
2026.000000	86.956543 
2025.000000	86.967989 
2024.000000	86.980972 
2023.000000	86.993705 
2022.000000	87.006485 
2021.000000	87.020689 
2020.000000	87.034688 
2019.000000	87.038870 
2018.000000	87.020759 
2017.000000	86.982649 
2016.000000	86.950020 
2015.000000	86.950074 
2014.000000	86.980632 
2013.000000	87.009406 
2012.000000	87.008271 
2011.000000	86.984050 
2010.000000	86.969132 
2009.000000	86.983868 
2008.000000	87.016531 
2007.000000	87.040774 
2006.000000	87.043966 
2005.000000	87.032696 
2004.000000	87.019487 
2003.000000	87.012830 
2002.000000	87.017899 
2001.000000	87.037138 
2000.000000	87.066058 
1999.000000	87.096217 
1998.000000	87.121445 
1997.000000	87.139083 
1996.000000	87.148090 
1995.000000	87.149363 
1994.000000	87.144978 
1993.000000	87.133386 
1992.000000	87.107619 
1991.000000	87.064803 
1990.000000	87.017740 
1989.000000	86.987715 
1988.000000	86.981853 
1987.000000	86.984892 
1986.000000	86.979952 
1985.000000	86.971111 
1984.000000	86.974959 
1983.000000	86.994378 
1982.000000	87.014450 
1981.000000	87.024895 
1980.000000	87.032374 
1979.000000	87.047514 
1978.000000	87.069068 
1977.000000	87.090735 
1976.000000	87.114496 
1975.000000	87.143950 
1974.000000	87.168456 
1973.000000	87.168092 
1972.000000	87.135541 
1971.000000	87.083353 
1970.000000	87.030202 
1969.000000	86.990793 
1968.000000	86.977811 
1967.000000	86.997109 
1966.000000	87.034974 
1965.000000	87.065332 
1964.000000	87.075246 
1963.000000	87.070759 
1962.000000	87.058783 
1961.000000	87.038878 
1960.000000	87.017794 
1959.000000	87.016026 
1958.000000	87.045193 
1957.000000	87.086797 
1956.000000	87.107022 
1955.000000	87.090778 
1954.000000	87.052292 
1953.000000	87.015262 
1952.000000	86.993644 
1951.000000	86.989266 
1950.000000	86.999392 
1949.000000	87.018964 
1948.000000	87.038976 
1947.000000	87.051363 
1946.000000	87.054727 
1945.000000	87.051134 
1944.000000	87.040495 
1943.000000	87.024556 
1942.000000	87.014286 
1941.000000	87.021891 
1940.000000	87.046195 
1939.000000	87.072419 
1938.000000	87.083279 
1937.000000	87.071015 
1936.000000	87.042015 
1935.000000	87.010866 
1934.000000	86.990747 
1933.000000	86.987401 
1932.000000	86.996075 
1931.000000	87.002711 
1930.000000	86.999923 
1929.000000	86.997146 
1928.000000	87.008081 
1927.000000	87.034232 
1926.000000	87.063283 
1925.000000	87.086157 
1924.000000	87.101377 
1923.000000	87.107973 
1922.000000	87.104483 
1921.000000	87.094878 
1920.000000	87.088029 
1919.000000	87.086283 
1918.000000	87.078661 
1917.000000	87.052118 
1916.000000	87.005957 
1915.000000	86.957843 
1914.000000	86.933691 
1913.000000	86.950739 
1912.000000	87.005841 
1911.000000	87.074742 
1910.000000	87.126804 
1909.000000	87.142766 
1908.000000	87.124696 
1907.000000	87.092423 
1906.000000	87.064727 
1905.000000	87.048232 
1904.000000	87.036527 
1903.000000	87.024807 
1902.000000	87.023750 
1901.000000	87.045688 
1900.000000	87.082439 
1899.000000	87.111176 
1898.000000	87.117689 
1897.000000	87.108426 
1896.000000	87.095414 
1895.000000	87.081843 
1894.000000	87.070810 
1893.000000	87.073986 
1892.000000	87.098919 
1891.000000	87.133548 
1890.000000	87.153461 
1889.000000	87.148215 
1888.000000	87.131624 
1887.000000	87.124092 
1886.000000	87.132891 
1885.000000	87.147644 
1884.000000	87.152336 
1883.000000	87.142464 
1882.000000	87.131048 
1881.000000	87.133075 
1880.000000	87.149301 
1879.000000	87.169791 
1878.000000	87.184938 
1877.000000	87.191773 
1876.000000	87.191576 
1875.000000	87.183681 
1874.000000	87.168352 
1873.000000	87.152407 
1872.000000	87.143780 
1871.000000	87.142909 
1870.000000	87.145118 
1869.000000	87.151638 
1868.000000	87.165101 
1867.000000	87.176741 
1866.000000	87.180478 
1865.000000	87.181037 
1864.000000	87.179324 
1863.000000	87.168084 
1862.000000	87.144607 
1861.000000	87.118351 
1860.000000	87.100068 
1859.000000	87.090635 
1858.000000	87.087289 
1857.000000	87.092639 
1856.000000	87.109195 
1855.000000	87.132014 
1854.000000	87.153123 
1853.000000	87.169097 
1852.000000	87.180074 
1851.000000	87.190929 
1850.000000	87.202458 
1849.000000	87.209864 
1848.000000	87.212784 
1847.000000	87.219837 
1846.000000	87.234944 
1845.000000	87.242719 
1844.000000	87.222105 
1843.000000	87.176464 
1842.000000	87.134441 
1841.000000	87.118949 
1840.000000	87.127475 
1839.000000	87.141024 
1838.000000	87.146014 
1837.000000	87.148346 
1836.000000	87.155356 
1835.000000	87.160395 
1834.000000	87.156643 
1833.000000	87.153970 
1832.000000	87.171399 
1831.000000	87.211022 
1830.000000	87.241673 
1829.000000	87.232426 
1828.000000	87.196041 
1827.000000	87.174202 
1826.000000	87.187472 
1825.000000	87.218357 
1824.000000	87.237450 
1823.000000	87.231424 
1822.000000	87.210348 
1821.000000	87.195708 
1820.000000	87.204486 
1819.000000	87.232984 
1818.000000	87.255659 
1817.000000	87.252613 
1816.000000	87.225982 
1815.000000	87.190669 
1814.000000	87.161036 
1813.000000	87.146477 
1812.000000	87.152347 
1811.000000	87.166589 
1810.000000	87.167195 
1809.000000	87.152212 
1808.000000	87.136254 
1807.000000	87.127210 
1806.000000	87.125339 
1805.000000	87.135472 
1804.000000	87.164054 
1803.000000	87.205347 
1802.000000	87.240655 
1801.000000	87.251019 
1800.000000	87.237712 
1799.000000	87.213493 
1798.000000	87.191755 
1797.000000	87.182061 
1796.000000	87.184475 
1795.000000	87.192902 
1794.000000	87.201842 
1793.000000	87.206589 
1792.000000	87.204632 
1791.000000	87.184671 
1790.000000	87.142262 
1789.000000	87.100392 
1788.000000	87.085650 
1787.000000	87.102115 
1786.000000	87.131446 
1785.000000	87.149050 
1784.000000	87.142697 
1783.000000	87.124441 
1782.000000	87.118081 
1781.000000	87.125159 
1780.000000	87.133931 
1779.000000	87.139418 
1778.000000	87.151462 
1777.000000	87.175826 
1776.000000	87.200356 
1775.000000	87.213355 
1774.000000	87.211109 
1773.000000	87.193107 
1772.000000	87.174627 
1771.000000	87.171992 
1770.000000	87.173436 
1769.000000	87.174400 
1768.000000	87.181339 
1767.000000	87.190522 
1766.000000	87.195113 
1765.000000	87.201338 
1764.000000	87.222298 
1763.000000	87.252027 
1762.000000	87.262604 
1761.000000	87.233112 
1760.000000	87.182464 
1759.000000	87.144107 
1758.000000	87.133844 
1757.000000	87.138037 
1756.000000	87.136803 
1755.000000	87.125166 
1754.000000	87.102408 
1753.000000	87.066937 
1752.000000	87.029906 
1751.000000	87.025983 
1750.000000	87.066239 
1749.000000	87.110284 
1748.000000	87.119693 
1747.000000	87.102065 
1746.000000	87.078028 
1745.000000	87.048191 
1744.000000	87.015159 
1743.000000	86.996278 
1742.000000	87.006773 
1741.000000	87.041359 
1740.000000	87.075879 
1739.000000	87.079544 
1738.000000	87.043937 
1737.000000	86.993370 
1736.000000	86.953243 
1735.000000	86.921047 
1734.000000	86.893218 
1733.000000	86.876317 
1732.000000	86.861206 
1731.000000	86.853598 
1730.000000	86.859633 
1729.000000	86.865796 
1728.000000	86.861577 
1727.000000	86.858135 
1726.000000	86.864532 
1725.000000	86.871651 
1724.000000	86.872865 
1723.000000	86.867891 
1722.000000	86.859556 
1721.000000	86.853683 
1720.000000	86.855354 
1719.000000	86.858039 
1718.000000	86.849545 
1717.000000	86.847197 
1716.000000	86.860716 
1715.000000	86.866255 
1714.000000	86.861431 
1713.000000	86.859433 
1712.000000	86.858179 
1711.000000	86.850463 
1710.000000	86.843264 
1709.000000	86.853155 
1708.000000	86.887730 
1707.000000	86.927461 
1706.000000	86.930282 
1705.000000	86.880662 
1704.000000	86.811148 
1703.000000	86.765625 
1702.000000	86.756296 
1701.000000	86.749086 
1700.000000	86.703110 
1699.000000	86.623607 
1698.000000	86.554385 
1697.000000	86.540305 
1696.000000	86.574246 
1695.000000	86.600199 
1694.000000	86.589828 
1693.000000	86.571861 
1692.000000	86.563669 
1691.000000	86.545868 
1690.000000	86.502759 
1689.000000	86.449999 
1688.000000	86.414829 
1687.000000	86.409784 
1686.000000	86.411685 
1685.000000	86.383240 
1684.000000	86.323292 
1683.000000	86.277083 
1682.000000	86.260379 
1681.000000	86.256453 
1680.000000	86.235299 
1679.000000	86.185317 
1678.000000	86.128037 
1677.000000	86.088283 
1676.000000	86.064982 
1675.000000	86.044752 
1674.000000	86.022679 
1673.000000	86.001324 
1672.000000	85.999824 
1671.000000	86.027910 
1670.000000	86.079765 
1669.000000	86.122700 
1668.000000	86.115158 
1667.000000	86.064252 
1666.000000	86.011118 
1665.000000	85.982228 
1664.000000	85.973412 
1663.000000	85.961555 
1662.000000	85.937547 
1661.000000	85.899163 
1660.000000	85.849691 
1659.000000	85.804904 
1658.000000	85.777866 
1657.000000	85.766873 
1656.000000	85.762528 
1655.000000	85.742382 
1654.000000	85.686115 
1653.000000	85.647143 
1652.000000	85.678592 
1651.000000	85.701890 
1650.000000	85.698851 
1649.000000	85.690643 
1648.000000	85.684809 
1647.000000	85.689622 
1646.000000	85.707491 
1645.000000	85.713318 
1644.000000	85.707917 
1643.000000	85.721111 
1642.000000	85.764628 
1641.000000	85.814416 
1640.000000	85.839981 
1639.000000	85.837960 
1638.000000	85.820594 
1637.000000	85.789993 
1636.000000	85.742990 
1635.000000	85.700760 
1634.000000	85.667439 
1633.000000	85.641027 
1632.000000	85.636320 
1631.000000	85.665677 
1630.000000	85.724923 
1629.000000	85.784243 
1628.000000	85.805986 
1627.000000	85.786690 
1626.000000	85.758975 
1625.000000	85.740772 
1624.000000	85.720664 
1623.000000	85.690621 
1622.000000	85.667181 
1621.000000	85.659766 
1620.000000	85.673954 
1619.000000	85.718157 
1618.000000	85.781085 
1617.000000	85.826732 
1616.000000	85.820408 
1615.000000	85.776368 
1614.000000	85.739277 
1613.000000	85.726968 
1612.000000	85.724412 
1611.000000	85.722530 
1610.000000	85.734465 
1609.000000	85.759008 
1608.000000	85.770544 
1607.000000	85.761215 
1606.000000	85.753871 
1605.000000	85.759851 
1604.000000	85.772072 
1603.000000	85.788020 
1602.000000	85.805967 
1601.000000	85.808721 
1600.000000	85.779108 
1599.000000	85.730344 
1598.000000	85.695932 
1597.000000	85.694816 
1596.000000	85.722621 
1595.000000	85.766525 
1594.000000	85.811099 
1593.000000	85.833930 
1592.000000	85.825881 
1591.000000	85.813718 
1590.000000	85.836519 
1589.000000	85.894645 
1588.000000	85.949764 
1587.000000	85.975651 
1586.000000	85.977777 
1585.000000	85.962171 
1584.000000	85.923936 
1583.000000	85.885052 
1582.000000	85.885843 
1581.000000	85.930647 
1580.000000	85.981186 
1579.000000	86.013644 
1578.000000	86.034350 
1577.000000	86.053367 
1576.000000	86.067968 
1575.000000	86.069613 
1574.000000	86.061525 
1573.000000	86.064630 
1572.000000	86.094009 
1571.000000	86.138580 
1570.000000	86.179682 
1569.000000	86.201863 
1568.000000	86.189927 
1567.000000	86.161331 
1566.000000	86.144016 
1565.000000	86.143991 
1564.000000	86.153628 
1563.000000	86.176242 
1562.000000	86.206519 
1561.000000	86.193275 
1560.000000	86.044284 
1559.000000	85.833808 
1558.000000	85.820372 
1557.000000	85.956780 
1556.000000	86.097643 
1555.000000	86.209506 
1554.000000	86.278089 
1553.000000	86.290998 
1552.000000	86.275970 
1551.000000	86.270417 
1550.000000	86.280037 
1549.000000	86.289760 
1548.000000	86.286020 
1547.000000	86.276592 
1546.000000	86.275119 
1545.000000	86.291111 
1544.000000	86.327852 
1543.000000	86.373430 
1542.000000	86.399698 
1541.000000	86.409775 
1540.000000	86.443366 
1539.000000	86.498108 
1538.000000	86.513364 
1537.000000	86.488291 
1536.000000	86.472642 
1535.000000	86.495693 
1534.000000	86.554357 
1533.000000	86.619744 
1532.000000	86.654364 
1531.000000	86.644036 
1530.000000	86.612243 
1529.000000	86.583120 
1528.000000	86.563668 
1527.000000	86.557940 
1526.000000	86.575776 
1525.000000	86.618338 
1524.000000	86.668833 
1523.000000	86.697313 
1522.000000	86.687018 
1521.000000	86.664037 
1520.000000	86.655953 
1519.000000	86.655720 
1518.000000	86.654335 
1517.000000	86.649985 
1516.000000	86.647058 
1515.000000	86.641055 
1514.000000	86.625488 
1513.000000	86.605991 
1512.000000	86.603760 
1511.000000	86.632863 
1510.000000	86.684829 
1509.000000	86.731290 
1508.000000	86.744046 
1507.000000	86.736605 
1506.000000	86.765214 
1505.000000	86.824045 
1504.000000	86.863691 
1503.000000	86.877435 
1502.000000	86.873692 
1501.000000	86.857151 
1500.000000	86.834983 
1499.000000	86.815544 
1498.000000	86.795373 
1497.000000	86.781419 
1496.000000	86.790999 
1495.000000	86.809888 
1494.000000	86.821251 
1493.000000	86.830084 
1492.000000	86.834740 
1491.000000	86.818208 
1490.000000	86.789517 
1489.000000	86.797364 
1488.000000	86.852051 
1487.000000	86.897706 
1486.000000	86.904706 
1485.000000	86.891868 
1484.000000	86.875486 
1483.000000	86.860056 
1482.000000	86.842523 
1481.000000	86.829875 
1480.000000	86.825823 
1479.000000	86.812605 
1478.000000	86.765154 
1477.000000	86.681092 
1476.000000	86.588946 
1475.000000	86.516620 
1474.000000	86.481328 
1473.000000	86.500093 
1472.000000	86.576309 
1471.000000	86.650542 
1470.000000	86.671772 
1469.000000	86.660547 
1468.000000	86.657594 
1467.000000	86.673514 
1466.000000	86.687233 
1465.000000	86.670563 
1464.000000	86.619772 
1463.000000	86.558705 
1462.000000	86.515377 
1461.000000	86.509629 
1460.000000	86.534808 
1459.000000	86.558651 
1458.000000	86.544336 
1457.000000	86.508267 
1456.000000	86.505436 
1455.000000	86.530186 
1454.000000	86.550126 
1453.000000	86.545727 
1452.000000	86.512712 
1451.000000	86.467083 
1450.000000	86.439937 
1449.000000	86.453196 
1448.000000	86.497635 
1447.000000	86.532219 
1446.000000	86.529203 
1445.000000	86.497978 
1444.000000	86.470301 
1443.000000	86.462332 
1442.000000	86.468000 
1441.000000	86.482068 
1440.000000	86.508254 
1439.000000	86.539954 
1438.000000	86.542822 
1437.000000	86.500188 
1436.000000	86.453466 
1435.000000	86.439128 
1434.000000	86.434943 
1433.000000	86.423936 
1432.000000	86.412735 
1431.000000	86.413226 
1430.000000	86.420034 
1429.000000	86.419340 
1428.000000	86.414138 
1427.000000	86.419970 
1426.000000	86.445285 
1425.000000	86.471265 
1424.000000	86.476475 
1423.000000	86.459496 
1422.000000	86.424929 
1421.000000	86.377020 
1420.000000	86.331259 
1419.000000	86.321602 
1418.000000	86.343942 
1417.000000	86.351541 
1416.000000	86.328736 
1415.000000	86.289128 
1414.000000	86.248313 
1413.000000	86.221868 
1412.000000	86.224557 
1411.000000	86.252268 
1410.000000	86.275585 
1409.000000	86.276947 
1408.000000	86.271847 
1407.000000	86.278094 
1406.000000	86.297650 
1405.000000	86.324207 
1404.000000	86.362259 
1403.000000	86.414118 
1402.000000	86.462927 
1401.000000	86.488840 
1400.000000	86.485268 
1399.000000	86.470352 
1398.000000	86.471571 
1397.000000	86.500297 
1396.000000	86.545850 
1395.000000	86.580431 
1394.000000	86.580647 
1393.000000	86.555505 
1392.000000	86.549233 
1391.000000	86.589591 
1390.000000	86.658020 
1389.000000	86.712601 
1388.000000	86.726862 
1387.000000	86.707280 
1386.000000	86.679787 
1385.000000	86.662015 
1384.000000	86.654991 
1383.000000	86.647005 
1382.000000	86.627127 
1381.000000	86.606127 
1380.000000	86.605716 
1379.000000	86.630122 
1378.000000	86.661190 
1377.000000	86.682384 
1376.000000	86.693238 
1375.000000	86.698628 
1374.000000	86.697578 
1373.000000	86.687296 
1372.000000	86.677133 
1371.000000	86.683075 
1370.000000	86.713136 
1369.000000	86.758391 
1368.000000	86.803897 
1367.000000	86.836022 
1366.000000	86.844629 
1365.000000	86.831157 
1364.000000	86.811472 
1363.000000	86.803934 
1362.000000	86.810925 
1361.000000	86.816644 
1360.000000	86.809417 
1359.000000	86.792303 
1358.000000	86.774196 
1357.000000	86.766068 
1356.000000	86.781916 
1355.000000	86.825730 
1354.000000	86.879557 
1353.000000	86.920463 
1352.000000	86.946285 
1351.000000	86.969171 
1350.000000	86.995899 
1349.000000	87.014218 
1348.000000	87.013215 
1347.000000	87.000664 
1346.000000	86.992171 
1345.000000	86.990790 
1344.000000	86.987259 
1343.000000	86.974023 
1342.000000	86.953237 
1341.000000	86.934464 
1340.000000	86.929524 
1339.000000	86.942518 
1338.000000	86.960865 
1337.000000	86.968820 
1336.000000	86.968260 
1335.000000	86.972319 
1334.000000	86.983475 
1333.000000	86.988807 
1332.000000	86.978410 
1331.000000	86.961527 
1330.000000	86.959322 
1329.000000	86.982377 
1328.000000	87.019801 
1327.000000	87.047657 
1326.000000	87.047470 
1325.000000	87.017308 
1324.000000	86.973340 
1323.000000	86.936081 
1322.000000	86.912991 
1321.000000	86.898609 
1320.000000	86.889361 
1319.000000	86.887923 
1318.000000	86.891879 
1317.000000	86.891964 
1316.000000	86.887452 
1315.000000	86.892723 
1314.000000	86.922290 
1313.000000	86.975701 
1312.000000	87.039334 
1311.000000	87.097316 
1310.000000	87.138257 
1309.000000	87.156916 
1308.000000	87.153809 
1307.000000	87.131073 
1306.000000	87.092525 
1305.000000	87.049313 
1304.000000	87.024343 
1303.000000	87.037494 
1302.000000	87.084017 
1301.000000	87.136149 
1300.000000	87.168462 
1299.000000	87.174603 
1298.000000	87.162319 
1297.000000	87.144853 
1296.000000	87.137456 
1295.000000	87.149880 
1294.000000	87.176048 
1293.000000	87.199611 
1292.000000	87.212180 
1291.000000	87.218020 
1290.000000	87.221749 
1289.000000	87.223494 
1288.000000	87.227176 
1287.000000	87.239432 
1286.000000	87.255875 
1285.000000	87.262362 
1284.000000	87.255655 
1283.000000	87.249171 
1282.000000	87.251248 
1281.000000	87.250972 
1280.000000	87.235447 
1279.000000	87.211564 
1278.000000	87.197908 
1277.000000	87.203244 
1276.000000	87.223787 
1275.000000	87.253992 
1274.000000	87.285107 
1273.000000	87.297531 
1272.000000	87.271547 
1271.000000	87.210852 
1270.000000	87.146067 
1269.000000	87.108772 
1268.000000	87.105805 
1267.000000	87.118864 
1266.000000	87.122772 
1265.000000	87.105738 
1264.000000	87.077816 
1263.000000	87.062018 
1262.000000	87.075944 
1261.000000	87.120260 
1260.000000	87.180960 
1259.000000	87.239676 
1258.000000	87.283295 
1257.000000	87.312064 
1256.000000	87.339846 
1255.000000	87.378710 
1254.000000	87.418478 
1253.000000	87.429362 
1252.000000	87.393244 
1251.000000	87.329679 
1250.000000	87.282459 
1249.000000	87.278846 
1248.000000	87.306604 
1247.000000	87.331540 
1246.000000	87.332896 
1245.000000	87.320404 
1244.000000	87.318750 
1243.000000	87.340033 
1242.000000	87.375601 
1241.000000	87.411890 
1240.000000	87.443254 
1239.000000	87.464321 
1238.000000	87.461246 
1237.000000	87.424236 
1236.000000	87.366208 
1235.000000	87.317809 
1234.000000	87.302369 
1233.000000	87.320705 
1232.000000	87.356352 
1231.000000	87.385567 
1230.000000	87.386485 
1229.000000	87.354366 
1228.000000	87.310620 
1227.000000	87.285337 
1226.000000	87.287221 
1225.000000	87.299436 
1224.000000	87.306490 
1223.000000	87.313282 
1222.000000	87.332752 
1221.000000	87.365376 
1220.000000	87.398338 
1219.000000	87.418894 
1218.000000	87.423398 
1217.000000	87.417930 
1216.000000	87.413963 
1215.000000	87.420198 
1214.000000	87.436108 
1213.000000	87.454513 
1212.000000	87.467933 
1211.000000	87.468669 
1210.000000	87.450302 
1209.000000	87.419582 
1208.000000	87.401158 
1207.000000	87.415124 
1206.000000	87.449114 
1205.000000	87.466517 
1204.000000	87.445359 
1203.000000	87.398563 
1202.000000	87.355616 
1201.000000	87.337090 
1200.000000	87.348096 
1199.000000	87.379506 
1198.000000	87.408112 
1197.000000	87.410972 
1196.000000	87.389624 
1195.000000	87.368960 
1194.000000	87.364158 
1193.000000	87.360261 
1192.000000	87.335197 
1191.000000	87.292916 
1190.000000	87.259620 
1189.000000	87.250395 
1188.000000	87.251036 
1187.000000	87.233975 
1186.000000	87.188397 
1185.000000	87.136269 
1184.000000	87.118257 
1183.000000	87.156530 
1182.000000	87.228491 
1181.000000	87.285434 
1180.000000	87.300176 
1179.000000	87.285464 
1178.000000	87.261814 
1177.000000	87.225172 
1176.000000	87.162844 
1175.000000	87.089815 
1174.000000	87.044844 
1173.000000	87.046125 
1172.000000	87.068764 
1171.000000	87.074944 
1170.000000	87.054747 
1169.000000	87.026566 
1168.000000	87.004864 
1167.000000	86.983575 
1166.000000	86.953174 
1165.000000	86.919284 
1164.000000	86.893498 
1163.000000	86.874392 
1162.000000	86.852731 
1161.000000	86.832943 
1160.000000	86.831831 
1159.000000	86.851785 
1158.000000	86.871941 
1157.000000	86.876405 
1156.000000	86.877540 
1155.000000	86.897429 
1154.000000	86.936698 
1153.000000	86.976169 
1152.000000	87.000413 
1151.000000	87.003960 
1150.000000	86.983155 
1149.000000	86.942005 
1148.000000	86.902511 
1147.000000	86.889464 
1146.000000	86.903199 
1145.000000	86.921452 
1144.000000	86.927236 
1143.000000	86.920847 
1142.000000	86.907792 
1141.000000	86.893350 
1140.000000	86.888782 
1139.000000	86.904046 
1138.000000	86.931530 
1137.000000	86.952510 
1136.000000	86.960009 
1135.000000	86.959192 
1134.000000	86.947917 
1133.000000	86.918762 
1132.000000	86.881083 
1131.000000	86.857000 
1130.000000	86.850189 
1129.000000	86.841568 
1128.000000	86.822678 
1127.000000	86.808980 
1126.000000	86.810814 
1125.000000	86.816474 
1124.000000	86.817081 
1123.000000	86.823079 
1122.000000	86.837860 
1121.000000	86.837781 
1120.000000	86.801587 
1119.000000	86.743654 
1118.000000	86.696988 
1117.000000	86.678018 
1116.000000	86.689219 
1115.000000	86.738519 
1114.000000	86.825370 
1113.000000	86.915827 
1112.000000	86.962832 
1111.000000	86.955114 
1110.000000	86.925789 
1109.000000	86.910840 
1108.000000	86.919067 
1107.000000	86.940189 
1106.000000	86.959628 
1105.000000	86.961087 
1104.000000	86.935921 
1103.000000	86.899861 
1102.000000	86.885253 
1101.000000	86.907339 
1100.000000	86.953525 
1099.000000	87.007606 
1098.000000	87.074658 
1097.000000	87.164402 
1096.000000	87.263910 
1095.000000	87.342572 
1094.000000	87.378955 
1093.000000	87.369641 
1092.000000	87.319191 
1091.000000	87.242697 
1090.000000	87.176274 
1089.000000	87.158869 
1088.000000	87.192372 
1087.000000	87.235941 
1086.000000	87.251715 
1085.000000	87.241815 
1084.000000	87.226866 
1083.000000	87.207066 
1082.000000	87.169822 
1081.000000	87.124952 
1080.000000	87.100414 
1079.000000	87.102091 
1078.000000	87.106957 
1077.000000	87.103323 
1076.000000	87.110234 
1075.000000	87.143812 
1074.000000	87.188673 
1073.000000	87.220687 
1072.000000	87.237769 
1071.000000	87.249011 
1070.000000	87.251987 
1069.000000	87.241981 
1068.000000	87.227586 
1067.000000	87.214393 
1066.000000	87.187548 
1065.000000	87.137326 
1064.000000	87.092803 
1063.000000	87.100329 
1062.000000	87.167124 
1061.000000	87.248592 
1060.000000	87.295538 
1059.000000	87.298319 
1058.000000	87.283174 
1057.000000	87.279796 
1056.000000	87.296940 
1055.000000	87.321271 
1054.000000	87.336964 
1053.000000	87.346456 
1052.000000	87.362824 
1051.000000	87.379560 
1050.000000	87.367209 
1049.000000	87.313190 
1048.000000	87.247677 
1047.000000	87.212998 
1046.000000	87.221972 
1045.000000	87.261023 
1044.000000	87.314180 
1043.000000	87.364663 
1042.000000	87.394309 
1041.000000	87.407408 
1040.000000	87.438479 
1039.000000	87.508699 
1038.000000	87.587728 
1037.000000	87.627256 
1036.000000	87.621130 
1035.000000	87.603723 
1034.000000	87.600212 
1033.000000	87.608547 
1032.000000	87.619204 
1031.000000	87.619804 
1030.000000	87.590566 
1029.000000	87.531975 
1028.000000	87.490352 
1027.000000	87.516905 
1026.000000	87.601663 
1025.000000	87.682392 
1024.000000	87.716425 
1023.000000	87.708625 
1022.000000	87.675502 
1021.000000	87.628488 
1020.000000	87.594985 
1019.000000	87.605944 
1018.000000	87.647634 
1017.000000	87.668098 
1016.000000	87.650392 
1015.000000	87.642232 
1014.000000	87.692838 
1013.000000	87.792428 
1012.000000	87.892617 
1011.000000	87.958529 
1010.000000	87.986425 
1009.000000	87.995786 
1008.000000	88.012292 
1007.000000	88.034754 
1006.000000	88.031939 
1005.000000	88.023769 
1004.000000	88.148590 
1003.000000	88.544478 
1002.000000	89.116862 
1001.000000	89.513570 
1000.000000	89.437111 
999.000000	 88.962904 
998.000000	 88.452300 
997.000000	 88.176671 
996.000000	 88.131040 
995.000000	 88.172633 
994.000000	 88.209643 
993.000000	 88.228203 
992.000000	 88.230968 
991.000000	 88.223723 
990.000000	 88.228418 
989.000000	 88.258579 
988.000000	 88.296841 
987.000000	 88.322018 
986.000000	 88.335727 
985.000000	 88.341469 
984.000000	 88.326736 
983.000000	 88.293419 
982.000000	 88.279206 
981.000000	 88.314909 
980.000000	 88.377221 
979.000000	 88.414543 
978.000000	 88.408699 
977.000000	 88.384248 
976.000000	 88.367506 
975.000000	 88.366477 
974.000000	 88.384884 
973.000000	 88.423868 
972.000000	 88.466378 
971.000000	 88.486024 
970.000000	 88.479876 
969.000000	 88.473196 
968.000000	 88.483214 
967.000000	 88.495319 
966.000000	 88.486831 
965.000000	 88.462905 
964.000000	 88.455257 
963.000000	 88.488920 
962.000000	 88.558110 
961.000000	 88.631066 
960.000000	 88.671812 
959.000000	 88.662599 
958.000000	 88.618356 
957.000000	 88.581705 
956.000000	 88.592119 
955.000000	 88.649443 
954.000000	 88.710474 
953.000000	 88.731830 
952.000000	 88.716934 
951.000000	 88.710173 
950.000000	 88.741033 
949.000000	 88.784879 
948.000000	 88.789394 
947.000000	 88.735266 
946.000000	 88.660560 
945.000000	 88.625735 
944.000000	 88.661040 
943.000000	 88.744505 
942.000000	 88.821325 
941.000000	 88.846167 
940.000000	 88.818106 
939.000000	 88.779617 
938.000000	 88.777041 
937.000000	 88.818686 
936.000000	 88.872468 
935.000000	 88.901574 
934.000000	 88.897503 
933.000000	 88.881108 
932.000000	 88.878901 
931.000000	 88.898955 
930.000000	 88.925018 
929.000000	 88.933894 
928.000000	 88.920609 
927.000000	 88.902991 
926.000000	 88.899150 
925.000000	 88.908319 
924.000000	 88.920024 
923.000000	 88.931819 
922.000000	 88.946556 
921.000000	 88.961957 
920.000000	 88.979293 
919.000000	 89.014921 
918.000000	 89.081683 
917.000000	 89.160024 
916.000000	 89.209731 
915.000000	 89.214555 
914.000000	 89.195123 
913.000000	 89.172012 
912.000000	 89.139832 
911.000000	 89.091414 
910.000000	 89.047103 
909.000000	 89.039196 
908.000000	 89.077038 
907.000000	 89.143106 
906.000000	 89.212944 
905.000000	 89.262238 
904.000000	 89.266520 
903.000000	 89.220810 
902.000000	 89.159775 
901.000000	 89.134100 
900.000000	 89.159010 
899.000000	 89.201385 
898.000000	 89.224398 
897.000000	 89.227576 
896.000000	 89.233095 
895.000000	 89.247955 
894.000000	 89.258434 
893.000000	 89.256575 
892.000000	 89.254141 
891.000000	 89.266767 
890.000000	 89.295198 
889.000000	 89.326900 
888.000000	 89.349422 
887.000000	 89.358938 
886.000000	 89.362083 
885.000000	 89.372494 
884.000000	 89.399000 
883.000000	 89.432471 
882.000000	 89.449151 
881.000000	 89.431847 
880.000000	 89.383816 
879.000000	 89.319708 
878.000000	 89.252590 
877.000000	 89.197621 
876.000000	 89.177596 
875.000000	 89.206590 
874.000000	 89.267495 
873.000000	 89.320630 
872.000000	 89.339679 
871.000000	 89.330139 
870.000000	 89.312216 
869.000000	 89.299298 
868.000000	 89.298136 
867.000000	 89.316733 
866.000000	 89.359962 
865.000000	 89.420166 
864.000000	 89.478999 
863.000000	 89.519382 
862.000000	 89.536789 
861.000000	 89.542877 
860.000000	 89.555203 
859.000000	 89.576307 
858.000000	 89.587431 
857.000000	 89.573296 
856.000000	 89.546092 
855.000000	 89.528122 
854.000000	 89.516047 
853.000000	 89.486319 
852.000000	 89.437577 
851.000000	 89.400091 
850.000000	 89.394039 
849.000000	 89.405757 
848.000000	 89.419889 
847.000000	 89.447116 
846.000000	 89.498233 
845.000000	 89.555971 
844.000000	 89.600113 
843.000000	 89.639038 
842.000000	 89.684329 
841.000000	 89.712010 
840.000000	 89.687889 
839.000000	 89.623489 
838.000000	 89.567879 
837.000000	 89.543977 
836.000000	 89.529850 
835.000000	 89.507613 
834.000000	 89.493776 
833.000000	 89.508109 
832.000000	 89.542279 
831.000000	 89.575176 
830.000000	 89.596612 
829.000000	 89.602607 
828.000000	 89.590477 
827.000000	 89.575245 
826.000000	 89.590223 
825.000000	 89.651783 
824.000000	 89.737127 
823.000000	 89.810112 
822.000000	 89.852899 
821.000000	 89.861320 
820.000000	 89.832471 
819.000000	 89.776401 
818.000000	 89.722583 
817.000000	 89.694129 
816.000000	 89.685470 
815.000000	 89.677796 
814.000000	 89.661374 
813.000000	 89.626577 
812.000000	 89.551348 
811.000000	 89.427369 
810.000000	 89.294277 
809.000000	 89.220305 
808.000000	 89.241347 
807.000000	 89.331018 
806.000000	 89.431686 
805.000000	 89.503071 
804.000000	 89.539848 
803.000000	 89.556898 
802.000000	 89.567746 
801.000000	 89.575973 
800.000000	 89.583109 
799.000000	 89.599064 
798.000000	 89.635550 
797.000000	 89.687106 
796.000000	 89.730506 
795.000000	 89.749825 
794.000000	 89.749722 
793.000000	 89.734348 
792.000000	 89.690331 
791.000000	 89.612878 
790.000000	 89.539786 
789.000000	 89.529981 
788.000000	 89.598058 
787.000000	 89.686289 
786.000000	 89.716122 
785.000000	 89.664585 
784.000000	 89.583780 
783.000000	 89.548153 
782.000000	 89.586400 
781.000000	 89.663229 
780.000000	 89.724220 
779.000000	 89.754228 
778.000000	 89.785569 
777.000000	 89.850137 
776.000000	 89.938595 
775.000000	 90.017854 
774.000000	 90.074596 
773.000000	 90.117655 
772.000000	 90.140418 
771.000000	 90.111313 
770.000000	 90.018137 
769.000000	 89.901850 
768.000000	 89.820765 
767.000000	 89.785716 
766.000000	 89.754575 
765.000000	 89.697780 
764.000000	 89.648425 
763.000000	 89.667588 
762.000000	 89.767708 
761.000000	 89.891835 
760.000000	 89.973282 
759.000000	 89.998240 
758.000000	 89.997885 
757.000000	 89.996046 
756.000000	 89.989662 
755.000000	 89.976371 
754.000000	 89.971908 
753.000000	 89.987268 
752.000000	 90.007764 
751.000000	 90.012892 
750.000000	 90.007714 
749.000000	 90.017456 
748.000000	 90.054570 
747.000000	 90.104516 
746.000000	 90.140664 
745.000000	 90.140194 
744.000000	 90.089303 
743.000000	 89.992963 
742.000000	 89.888000 
741.000000	 89.832065 
740.000000	 89.861051 
739.000000	 89.953687 
738.000000	 90.044670 
737.000000	 90.076580 
736.000000	 90.043071 
735.000000	 89.987433 
734.000000	 89.962528 
733.000000	 89.991093 
732.000000	 90.059386 
731.000000	 90.139108 
730.000000	 90.206087 
729.000000	 90.240820 
728.000000	 90.228512 
727.000000	 90.172386 
726.000000	 90.102809 
725.000000	 90.061318 
724.000000	 90.069473 
723.000000	 90.113784 
722.000000	 90.159004 
721.000000	 90.173376 
720.000000	 90.149839 
719.000000	 90.112543 
718.000000	 90.100747 
717.000000	 90.142059 
716.000000	 90.235226 
715.000000	 90.348891 
714.000000	 90.436380 
713.000000	 90.463379 
712.000000	 90.432971 
711.000000	 90.382308 
710.000000	 90.344336 
709.000000	 90.312414 
708.000000	 90.255826 
707.000000	 90.172856 
706.000000	 90.108139 
705.000000	 90.104386 
704.000000	 90.153538 
703.000000	 90.213594 
702.000000	 90.259067 
701.000000	 90.291473 
700.000000	 90.310903 
699.000000	 90.311113 
698.000000	 90.305281 
697.000000	 90.323644 
696.000000	 90.370597 
695.000000	 90.408446 
694.000000	 90.404961 
693.000000	 90.381369 
692.000000	 90.391193 
691.000000	 90.458315 
690.000000	 90.554505 
689.000000	 90.634996 
688.000000	 90.680085 
687.000000	 90.697711 
686.000000	 90.697432 
685.000000	 90.677619 
684.000000	 90.645804 
683.000000	 90.645521 
682.000000	 90.739361 
681.000000	 90.941664 
680.000000	 91.170070 
679.000000	 91.296815 
678.000000	 91.263698 
677.000000	 91.129223 
676.000000	 91.000838 
675.000000	 90.936981 
674.000000	 90.915381 
673.000000	 90.894625 
672.000000	 90.907940 
671.000000	 91.076250 
670.000000	 90.684364 
669.000000	 90.837292 
668.000000	 91.018354 
667.000000	 91.026779 
666.000000	 90.908012 
665.000000	 90.795239 
664.000000	 90.744038 
663.000000	 90.759686 
662.000000	 90.919092 
661.000000	 90.960999 
660.000000	 90.966124 
659.000000	 90.968878 
658.000000	 91.008372 
657.000000	 91.074139 
656.000000	 91.100679 
655.000000	 91.042475 
654.000000	 90.940550 
653.000000	 90.877140 
652.000000	 90.876174 
651.000000	 90.893732 
650.000000	 90.731617 

