PE IR                   SPECTRUM    ASCII       PEDS        1.60        
  -1
~SP.SP
22/02/22
09:51:29.00
22/02/22
09:51:29.00
Administrator

650.000000
4









SPECTRUM 100,CPU32 MAIN 00.02.7000 27-JANUARY-2006 11:32:41
MCT
MIR
OPTKBR
76073
1.000000

4.000000
STRONG
RATIO
SPECTRUM
MAGNITUDE
MIR INT SPHERE
DOUBLE

COMBINED


0


#HDR
-1
-1
#GR
CM-1
%T
0.00002384185791015625
0.0
4000.000000
-1.000000
3351
8
85.416913
65.734835
#DATA
4000.000000	84.795977 
3999.000000	84.775870 
3998.000000	84.745716 
3997.000000	84.708996 
3996.000000	84.666265 
3995.000000	84.617097 
3994.000000	84.565676 
3993.000000	84.527197 
3992.000000	84.521434 
3991.000000	84.555437 
3990.000000	84.612944 
3989.000000	84.664940 
3988.000000	84.693139 
3987.000000	84.702249 
3986.000000	84.709555 
3985.000000	84.724849 
3984.000000	84.742348 
3983.000000	84.749992 
3982.000000	84.741173 
3981.000000	84.715268 
3980.000000	84.671877 
3979.000000	84.613203 
3978.000000	84.553763 
3977.000000	84.518051 
3976.000000	84.518542 
3975.000000	84.538020 
3974.000000	84.543161 
3973.000000	84.520273 
3972.000000	84.490726 
3971.000000	84.486976 
3970.000000	84.516916 
3969.000000	84.556792 
3968.000000	84.577613 
3967.000000	84.573119 
3966.000000	84.560854 
3965.000000	84.560883 
3964.000000	84.578077 
3963.000000	84.603030 
3962.000000	84.625531 
3961.000000	84.644198 
3960.000000	84.664048 
3959.000000	84.689898 
3958.000000	84.723746 
3957.000000	84.763441 
3956.000000	84.800971 
3955.000000	84.824113 
3954.000000	84.824049 
3953.000000	84.802982 
3952.000000	84.773397 
3951.000000	84.749806 
3950.000000	84.740228 
3949.000000	84.741880 
3948.000000	84.743733 
3947.000000	84.734708 
3946.000000	84.713132 
3945.000000	84.690525 
3944.000000	84.681757 
3943.000000	84.687212 
3942.000000	84.687062 
3941.000000	84.663090 
3940.000000	84.623745 
3939.000000	84.600059 
3938.000000	84.616398 
3937.000000	84.664896 
3936.000000	84.707361 
3935.000000	84.703655 
3934.000000	84.643346 
3933.000000	84.556355 
3932.000000	84.491079 
3931.000000	84.475702 
3930.000000	84.499295 
3929.000000	84.531646 
3928.000000	84.555964 
3927.000000	84.574014 
3926.000000	84.590720 
3925.000000	84.603241 
3924.000000	84.604684 
3923.000000	84.597072 
3922.000000	84.595089 
3921.000000	84.614173 
3920.000000	84.654924 
3919.000000	84.699066 
3918.000000	84.722404 
3917.000000	84.713891 
3916.000000	84.681100 
3915.000000	84.641612 
3914.000000	84.612489 
3913.000000	84.606284 
3912.000000	84.626044 
3911.000000	84.662322 
3910.000000	84.698780 
3909.000000	84.723550 
3908.000000	84.736170 
3907.000000	84.745004 
3906.000000	84.757738 
3905.000000	84.774484 
3904.000000	84.784775 
3903.000000	84.774730 
3902.000000	84.743363 
3901.000000	84.704973 
3900.000000	84.675497 
3899.000000	84.656610 
3898.000000	84.635357 
3897.000000	84.605123 
3896.000000	84.577580 
3895.000000	84.574308 
3894.000000	84.609504 
3893.000000	84.674986 
3892.000000	84.736791 
3891.000000	84.754875 
3890.000000	84.718033 
3889.000000	84.653626 
3888.000000	84.603258 
3887.000000	84.598914 
3886.000000	84.646539 
3885.000000	84.716885 
3884.000000	84.766620 
3883.000000	84.773369 
3882.000000	84.743210 
3881.000000	84.691458 
3880.000000	84.629884 
3879.000000	84.572757 
3878.000000	84.543149 
3877.000000	84.563023 
3876.000000	84.635599 
3875.000000	84.735381 
3874.000000	84.817074 
3873.000000	84.844967 
3872.000000	84.817167 
3871.000000	84.760116 
3870.000000	84.702090 
3869.000000	84.655947 
3868.000000	84.624435 
3867.000000	84.606791 
3866.000000	84.602970 
3865.000000	84.612279 
3864.000000	84.622413 
3863.000000	84.617550 
3862.000000	84.596306 
3861.000000	84.572652 
3860.000000	84.564405 
3859.000000	84.581377 
3858.000000	84.616270 
3857.000000	84.648224 
3856.000000	84.658817 
3855.000000	84.648461 
3854.000000	84.629477 
3853.000000	84.600950 
3852.000000	84.562324 
3851.000000	84.525665 
3850.000000	84.495871 
3849.000000	84.471953 
3848.000000	84.455729 
3847.000000	84.452480 
3846.000000	84.470761 
3845.000000	84.515566 
3844.000000	84.575479 
3843.000000	84.626009 
3842.000000	84.640704 
3841.000000	84.606803 
3840.000000	84.540079 
3839.000000	84.480262 
3838.000000	84.462138 
3837.000000	84.488743 
3836.000000	84.533887 
3835.000000	84.571358 
3834.000000	84.593737 
3833.000000	84.609959 
3832.000000	84.632256 
3831.000000	84.658917 
3830.000000	84.674813 
3829.000000	84.671289 
3828.000000	84.657198 
3827.000000	84.653124 
3826.000000	84.671380 
3825.000000	84.699056 
3824.000000	84.705379 
3823.000000	84.670994 
3822.000000	84.606409 
3821.000000	84.540784 
3820.000000	84.500061 
3819.000000	84.493079 
3818.000000	84.515375 
3817.000000	84.556175 
3816.000000	84.596802 
3815.000000	84.611038 
3814.000000	84.588169 
3813.000000	84.547188 
3812.000000	84.518564 
3811.000000	84.518677 
3810.000000	84.540335 
3809.000000	84.565832 
3808.000000	84.585567 
3807.000000	84.598093 
3806.000000	84.594761 
3805.000000	84.562128 
3804.000000	84.499814 
3803.000000	84.430465 
3802.000000	84.391218 
3801.000000	84.400181 
3800.000000	84.442725 
3799.000000	84.496959 
3798.000000	84.549128 
3797.000000	84.588008 
3796.000000	84.603615 
3795.000000	84.597212 
3794.000000	84.585084 
3793.000000	84.581393 
3792.000000	84.579107 
3791.000000	84.553302 
3790.000000	84.490652 
3789.000000	84.413720 
3788.000000	84.369215 
3787.000000	84.385859 
3786.000000	84.444984 
3785.000000	84.494942 
3784.000000	84.497615 
3783.000000	84.460354 
3782.000000	84.422987 
3781.000000	84.420577 
3780.000000	84.455063 
3779.000000	84.496588 
3778.000000	84.512813 
3777.000000	84.495504 
3776.000000	84.458710 
3775.000000	84.422247 
3774.000000	84.399523 
3773.000000	84.391348 
3772.000000	84.388472 
3771.000000	84.383598 
3770.000000	84.380370 
3769.000000	84.388229 
3768.000000	84.411701 
3767.000000	84.438987 
3766.000000	84.446041 
3765.000000	84.422998 
3764.000000	84.388164 
3763.000000	84.370256 
3762.000000	84.382415 
3761.000000	84.417164 
3760.000000	84.455137 
3759.000000	84.476906 
3758.000000	84.475052 
3757.000000	84.455783 
3756.000000	84.428027 
3755.000000	84.394155 
3754.000000	84.348568 
3753.000000	84.276866 
3752.000000	84.164137 
3751.000000	84.022477 
3750.000000	83.907128 
3749.000000	83.870785 
3748.000000	83.906993 
3747.000000	83.963925 
3746.000000	84.002739 
3745.000000	84.031328 
3744.000000	84.075498 
3743.000000	84.140228 
3742.000000	84.205013 
3741.000000	84.243924 
3740.000000	84.242819 
3739.000000	84.200645 
3738.000000	84.127431 
3737.000000	84.053526 
3736.000000	84.022471 
3735.000000	84.053180 
3734.000000	84.118587 
3733.000000	84.176404 
3732.000000	84.206216 
3731.000000	84.208708 
3730.000000	84.187653 
3729.000000	84.142757 
3728.000000	84.082956 
3727.000000	84.037402 
3726.000000	84.037856 
3725.000000	84.085874 
3724.000000	84.143746 
3723.000000	84.162430 
3722.000000	84.116720 
3721.000000	84.026829 
3720.000000	83.945529 
3719.000000	83.911117 
3718.000000	83.918837 
3717.000000	83.936365 
3716.000000	83.935764 
3715.000000	83.912925 
3714.000000	83.883807 
3713.000000	83.866098 
3712.000000	83.860619 
3711.000000	83.854351 
3710.000000	83.842759 
3709.000000	83.833912 
3708.000000	83.835826 
3707.000000	83.849216 
3706.000000	83.867057 
3705.000000	83.879818 
3704.000000	83.881017 
3703.000000	83.866520 
3702.000000	83.831204 
3701.000000	83.774234 
3700.000000	83.710106 
3699.000000	83.662117 
3698.000000	83.641599 
3697.000000	83.639061 
3696.000000	83.628685 
3695.000000	83.585364 
3694.000000	83.505487 
3693.000000	83.411200 
3692.000000	83.334176 
3691.000000	83.293050 
3690.000000	83.281531 
3689.000000	83.268156 
3688.000000	83.227422 
3687.000000	83.172563 
3686.000000	83.132190 
3685.000000	83.116191 
3684.000000	83.114921 
3683.000000	83.114167 
3682.000000	83.104498 
3681.000000	83.084317 
3680.000000	83.058052 
3679.000000	83.027467 
3678.000000	82.988237 
3677.000000	82.946617 
3676.000000	82.927039 
3675.000000	82.937937 
3674.000000	82.953709 
3673.000000	82.942276 
3672.000000	82.889428 
3671.000000	82.811729 
3670.000000	82.750035 
3669.000000	82.729305 
3668.000000	82.732442 
3667.000000	82.723637 
3666.000000	82.681858 
3665.000000	82.609284 
3664.000000	82.519007 
3663.000000	82.422647 
3662.000000	82.332489 
3661.000000	82.261176 
3660.000000	82.211645 
3659.000000	82.168736 
3658.000000	82.109270 
3657.000000	82.026532 
3656.000000	81.939740 
3655.000000	81.871896 
3654.000000	81.820789 
3653.000000	81.760061 
3652.000000	81.669157 
3651.000000	81.558793 
3650.000000	81.468423 
3649.000000	81.424637 
3648.000000	81.395994 
3647.000000	81.327188 
3646.000000	81.211240 
3645.000000	81.089466 
3644.000000	80.996214 
3643.000000	80.925738 
3642.000000	80.845609 
3641.000000	80.733668 
3640.000000	80.600117 
3639.000000	80.474690 
3638.000000	80.375330 
3637.000000	80.294002 
3636.000000	80.206408 
3635.000000	80.090361 
3634.000000	79.939671 
3633.000000	79.766006 
3632.000000	79.588930 
3631.000000	79.422022 
3630.000000	79.264538 
3629.000000	79.101505 
3628.000000	78.926129 
3627.000000	78.758108 
3626.000000	78.617689 
3625.000000	78.500076 
3624.000000	78.385764 
3623.000000	78.253032 
3622.000000	78.085450 
3621.000000	77.883094 
3620.000000	77.669710 
3619.000000	77.477346 
3618.000000	77.324148 
3617.000000	77.203858 
3616.000000	77.093316 
3615.000000	76.968310 
3614.000000	76.816421 
3613.000000	76.639468 
3612.000000	76.449321 
3611.000000	76.258272 
3610.000000	76.069993 
3609.000000	75.884937 
3608.000000	75.708739 
3607.000000	75.546487 
3606.000000	75.392026 
3605.000000	75.228195 
3604.000000	75.042133 
3603.000000	74.834859 
3602.000000	74.616467 
3601.000000	74.399522 
3600.000000	74.196869 
3599.000000	74.018112 
3598.000000	73.865878 
3597.000000	73.730212 
3596.000000	73.588021 
3595.000000	73.418131 
3594.000000	73.216493 
3593.000000	72.997251 
3592.000000	72.782989 
3591.000000	72.594335 
3590.000000	72.442782 
3589.000000	72.323621 
3588.000000	72.209357 
3587.000000	72.064185 
3586.000000	71.879133 
3585.000000	71.680249 
3584.000000	71.495079 
3583.000000	71.327127 
3582.000000	71.162122 
3581.000000	70.990926 
3580.000000	70.822688 
3579.000000	70.678101 
3578.000000	70.568431 
3577.000000	70.480815 
3576.000000	70.382338 
3575.000000	70.246339 
3574.000000	70.081378 
3573.000000	69.929527 
3572.000000	69.828728 
3571.000000	69.774421 
3570.000000	69.719916 
3569.000000	69.616013 
3568.000000	69.453878 
3567.000000	69.267663 
3566.000000	69.095431 
3565.000000	68.946561 
3564.000000	68.811249 
3563.000000	68.680951 
3562.000000	68.550745 
3561.000000	68.416159 
3560.000000	68.279696 
3559.000000	68.156318 
3558.000000	68.065316 
3557.000000	68.015425 
3556.000000	67.997031 
3555.000000	67.985687 
3554.000000	67.953196 
3553.000000	67.882726 
3552.000000	67.778885 
3551.000000	67.660415 
3550.000000	67.538556 
3549.000000	67.409996 
3548.000000	67.276109 
3547.000000	67.162491 
3546.000000	67.104907 
3545.000000	67.108640 
3544.000000	67.130397 
3543.000000	67.114171 
3542.000000	67.039062 
3541.000000	66.928557 
3540.000000	66.821376 
3539.000000	66.739264 
3538.000000	66.677641 
3537.000000	66.619963 
3536.000000	66.556827 
3535.000000	66.492514 
3534.000000	66.434020 
3533.000000	66.380094 
3532.000000	66.325832 
3531.000000	66.276542 
3530.000000	66.247870 
3529.000000	66.245688 
3528.000000	66.250590 
3527.000000	66.233726 
3526.000000	66.189667 
3525.000000	66.144827 
3524.000000	66.128172 
3523.000000	66.138161 
3522.000000	66.143514 
3521.000000	66.115313 
3520.000000	66.054168 
3519.000000	65.988281 
3518.000000	65.949175 
3517.000000	65.948502 
3516.000000	65.971538 
3515.000000	65.992091 
3514.000000	65.993735 
3513.000000	65.979546 
3512.000000	65.964479 
3511.000000	65.960505 
3510.000000	65.966170 
3509.000000	65.965946 
3508.000000	65.940146 
3507.000000	65.881313 
3506.000000	65.806130 
3505.000000	65.748806 
3504.000000	65.734835 
3503.000000	65.756725 
3502.000000	65.781162 
3501.000000	65.786356 
3500.000000	65.786196 
3499.000000	65.813425 
3498.000000	65.883253 
3497.000000	65.976618 
3496.000000	66.055986 
3495.000000	66.095677 
3494.000000	66.097010 
3493.000000	66.078022 
3492.000000	66.053679 
3491.000000	66.027656 
3490.000000	65.999572 
3489.000000	65.975673 
3488.000000	65.969097 
3487.000000	65.987583 
3486.000000	66.022283 
3485.000000	66.051547 
3484.000000	66.058417 
3483.000000	66.045040 
3482.000000	66.029863 
3481.000000	66.029857 
3480.000000	66.046835 
3479.000000	66.072847 
3478.000000	66.103565 
3477.000000	66.139474 
3476.000000	66.174496 
3475.000000	66.192077 
3474.000000	66.180183 
3473.000000	66.148916 
3472.000000	66.126391 
3471.000000	66.135801 
3470.000000	66.177840 
3469.000000	66.233405 
3468.000000	66.279970 
3467.000000	66.305384 
3466.000000	66.311217 
3465.000000	66.306605 
3464.000000	66.298835 
3463.000000	66.288395 
3462.000000	66.271715 
3461.000000	66.247524 
3460.000000	66.219657 
3459.000000	66.195614 
3458.000000	66.184029 
3457.000000	66.190112 
3456.000000	66.210157 
3455.000000	66.233845 
3454.000000	66.256557 
3453.000000	66.288595 
3452.000000	66.343543 
3451.000000	66.415940 
3450.000000	66.478367 
3449.000000	66.507216 
3448.000000	66.508465 
3447.000000	66.510075 
3446.000000	66.528105 
3445.000000	66.548280 
3444.000000	66.547369 
3443.000000	66.527043 
3442.000000	66.518894 
3441.000000	66.555035 
3440.000000	66.636751 
3439.000000	66.736137 
3438.000000	66.824813 
3437.000000	66.892894 
3436.000000	66.939570 
3435.000000	66.956454 
3434.000000	66.932799 
3433.000000	66.878871 
3432.000000	66.832361 
3431.000000	66.832398 
3430.000000	66.887412 
3429.000000	66.972179 
3428.000000	67.053374 
3427.000000	67.113905 
3426.000000	67.154774 
3425.000000	67.181134 
3424.000000	67.192318 
3423.000000	67.184993 
3422.000000	67.162998 
3421.000000	67.140941 
3420.000000	67.135003 
3419.000000	67.149670 
3418.000000	67.175945 
3417.000000	67.204215 
3416.000000	67.236361 
3415.000000	67.281693 
3414.000000	67.341744 
3413.000000	67.402722 
3412.000000	67.445230 
3411.000000	67.460335 
3410.000000	67.454273 
3409.000000	67.439283 
3408.000000	67.424936 
3407.000000	67.420440 
3406.000000	67.441344 
3405.000000	67.504608 
3404.000000	67.609753 
3403.000000	67.727217 
3402.000000	67.813609 
3401.000000	67.845903 
3400.000000	67.840728 
3399.000000	67.837342 
3398.000000	67.860971 
3397.000000	67.902032 
3396.000000	67.929050 
3395.000000	67.921180 
3394.000000	67.890269 
3393.000000	67.872596 
3392.000000	67.897817 
3391.000000	67.963106 
3390.000000	68.037708 
3389.000000	68.091482 
3388.000000	68.117178 
3387.000000	68.127751 
3386.000000	68.140948 
3385.000000	68.169504 
3384.000000	68.218269 
3383.000000	68.282237 
3382.000000	68.348560 
3381.000000	68.406907 
3380.000000	68.457541 
3379.000000	68.506622 
3378.000000	68.557389 
3377.000000	68.610650 
3376.000000	68.668697 
3375.000000	68.729441 
3374.000000	68.779731 
3373.000000	68.805961 
3372.000000	68.812679 
3371.000000	68.820138 
3370.000000	68.840700 
3369.000000	68.867099 
3368.000000	68.888166 
3367.000000	68.906985 
3366.000000	68.937166 
3365.000000	68.988558 
3364.000000	69.062781 
3363.000000	69.155357 
3362.000000	69.254374 
3361.000000	69.343352 
3360.000000	69.414304 
3359.000000	69.474093 
3358.000000	69.530667 
3357.000000	69.578430 
3356.000000	69.606691 
3355.000000	69.618301 
3354.000000	69.629167 
3353.000000	69.651176 
3352.000000	69.686637 
3351.000000	69.737283 
3350.000000	69.803901 
3349.000000	69.873299 
3348.000000	69.919424 
3347.000000	69.927796 
3346.000000	69.913018 
3345.000000	69.904144 
3344.000000	69.916727 
3343.000000	69.946041 
3342.000000	69.983728 
3341.000000	70.030568 
3340.000000	70.089698 
3339.000000	70.152542 
3338.000000	70.198264 
3337.000000	70.210923 
3336.000000	70.197595 
3335.000000	70.186238 
3334.000000	70.202330 
3333.000000	70.248836 
3332.000000	70.310408 
3331.000000	70.373226 
3330.000000	70.434582 
3329.000000	70.495444 
3328.000000	70.553222 
3327.000000	70.605125 
3326.000000	70.652131 
3325.000000	70.695147 
3324.000000	70.731938 
3323.000000	70.763110 
3322.000000	70.797340 
3321.000000	70.844330 
3320.000000	70.902944 
3319.000000	70.959986 
3318.000000	71.001116 
3317.000000	71.021761 
3316.000000	71.028895 
3315.000000	71.035163 
3314.000000	71.051762 
3313.000000	71.085558 
3312.000000	71.140865 
3311.000000	71.219804 
3310.000000	71.317036 
3309.000000	71.416337 
3308.000000	71.498930 
3307.000000	71.556562 
3306.000000	71.591472 
3305.000000	71.603424 
3304.000000	71.586030 
3303.000000	71.542196 
3302.000000	71.497211 
3301.000000	71.486951 
3300.000000	71.530049 
3299.000000	71.613655 
3298.000000	71.705948 
3297.000000	71.781653 
3296.000000	71.837205 
3295.000000	71.884104 
3294.000000	71.929554 
3293.000000	71.966675 
3292.000000	71.986943 
3291.000000	71.999310 
3290.000000	72.027907 
3289.000000	72.087270 
3288.000000	72.165804 
3287.000000	72.237411 
3286.000000	72.285484 
3285.000000	72.313380 
3284.000000	72.337398 
3283.000000	72.373500 
3282.000000	72.424556 
3281.000000	72.474619 
3280.000000	72.501902 
3279.000000	72.504588 
3278.000000	72.507895 
3277.000000	72.537201 
3276.000000	72.588815 
3275.000000	72.637639 
3274.000000	72.670480 
3273.000000	72.697275 
3272.000000	72.728039 
3271.000000	72.754659 
3270.000000	72.764644 
3269.000000	72.763894 
3268.000000	72.774380 
3267.000000	72.810856 
3266.000000	72.866830 
3265.000000	72.922805 
3264.000000	72.963408 
3263.000000	72.986860 
3262.000000	73.003805 
3261.000000	73.029848 
3260.000000	73.075684 
3259.000000	73.138570 
3258.000000	73.201487 
3257.000000	73.244214 
3256.000000	73.260537 
3255.000000	73.264528 
3254.000000	73.275298 
3253.000000	73.295429 
3252.000000	73.309924 
3251.000000	73.308962 
3250.000000	73.303871 
3249.000000	73.313116 
3248.000000	73.337532 
3247.000000	73.358778 
3246.000000	73.362183 
3245.000000	73.354603 
3244.000000	73.359559 
3243.000000	73.400203 
3242.000000	73.484489 
3241.000000	73.595549 
3240.000000	73.694132 
3239.000000	73.742383 
3238.000000	73.735038 
3237.000000	73.704418 
3236.000000	73.690405 
3235.000000	73.708275 
3234.000000	73.746655 
3233.000000	73.788482 
3232.000000	73.826383 
3231.000000	73.861458 
3230.000000	73.895042 
3229.000000	73.924198 
3228.000000	73.945101 
3227.000000	73.961675 
3226.000000	73.987710 
3225.000000	74.032628 
3224.000000	74.084355 
3223.000000	74.117226 
3222.000000	74.123329 
3221.000000	74.126208 
3220.000000	74.153063 
3219.000000	74.199944 
3218.000000	74.238083 
3217.000000	74.250817 
3216.000000	74.248602 
3215.000000	74.247509 
3214.000000	74.250765 
3213.000000	74.259371 
3212.000000	74.286075 
3211.000000	74.343148 
3210.000000	74.420323 
3209.000000	74.488026 
3208.000000	74.525379 
3207.000000	74.538973 
3206.000000	74.553978 
3205.000000	74.592971 
3204.000000	74.662854 
3203.000000	74.752556 
3202.000000	74.837746 
3201.000000	74.893638 
3200.000000	74.913831 
3199.000000	74.919744 
3198.000000	74.945777 
3197.000000	75.007891 
3196.000000	75.086330 
3195.000000	75.144652 
3194.000000	75.167767 
3193.000000	75.176756 
3192.000000	75.203153 
3191.000000	75.254318 
3190.000000	75.311511 
3189.000000	75.357775 
3188.000000	75.394302 
3187.000000	75.426397 
3186.000000	75.448751 
3185.000000	75.457022 
3184.000000	75.465551 
3183.000000	75.495962 
3182.000000	75.547749 
3181.000000	75.594603 
3180.000000	75.614776 
3179.000000	75.614936 
3178.000000	75.618096 
3177.000000	75.636781 
3176.000000	75.666472 
3175.000000	75.699070 
3174.000000	75.733256 
3173.000000	75.774709 
3172.000000	75.833414 
3171.000000	75.916657 
3170.000000	76.015242 
3169.000000	76.099151 
3168.000000	76.138444 
3167.000000	76.131439 
3166.000000	76.106124 
3165.000000	76.093931 
3164.000000	76.109721 
3163.000000	76.155103 
3162.000000	76.226226 
3161.000000	76.310693 
3160.000000	76.387235 
3159.000000	76.439715 
3158.000000	76.468283 
3157.000000	76.481328 
3156.000000	76.483943 
3155.000000	76.483691 
3154.000000	76.500476 
3153.000000	76.553907 
3152.000000	76.637462 
3151.000000	76.716910 
3150.000000	76.762057 
3149.000000	76.775871 
3148.000000	76.788143 
3147.000000	76.824088 
3146.000000	76.882584 
3145.000000	76.942007 
3144.000000	76.982631 
3143.000000	77.002568 
3142.000000	77.013557 
3141.000000	77.024458 
3140.000000	77.033469 
3139.000000	77.038371 
3138.000000	77.047636 
3137.000000	77.073153 
3136.000000	77.113902 
3135.000000	77.156159 
3134.000000	77.191335 
3133.000000	77.225324 
3132.000000	77.266083 
3131.000000	77.309579 
3130.000000	77.344742 
3129.000000	77.367911 
3128.000000	77.386236 
3127.000000	77.410086 
3126.000000	77.447312 
3125.000000	77.501459 
3124.000000	77.568229 
3123.000000	77.633577 
3122.000000	77.682079 
3121.000000	77.710528 
3120.000000	77.730434 
3119.000000	77.755014 
3118.000000	77.784798 
3117.000000	77.807418 
3116.000000	77.812359 
3115.000000	77.806504 
3114.000000	77.813512 
3113.000000	77.853886 
3112.000000	77.923267 
3111.000000	77.992126 
3110.000000	78.028171 
3109.000000	78.018806 
3108.000000	77.975276 
3107.000000	77.923602 
3106.000000	77.895192 
3105.000000	77.916965 
3104.000000	77.997163 
3103.000000	78.116208 
3102.000000	78.236769 
3101.000000	78.326868 
3100.000000	78.374950 
3099.000000	78.387297 
3098.000000	78.378001 
3097.000000	78.362238 
3096.000000	78.352393 
3095.000000	78.354603 
3094.000000	78.368943 
3093.000000	78.394082 
3092.000000	78.430141 
3091.000000	78.476040 
3090.000000	78.526014 
3089.000000	78.571316 
3088.000000	78.605898 
3087.000000	78.630485 
3086.000000	78.651258 
3085.000000	78.674290 
3084.000000	78.701355 
3083.000000	78.731701 
3082.000000	78.767304 
3081.000000	78.812442 
3080.000000	78.865337 
3079.000000	78.913071 
3078.000000	78.940352 
3077.000000	78.944931 
3076.000000	78.941481 
3075.000000	78.949057 
3074.000000	78.974993 
3073.000000	79.009527 
3072.000000	79.033576 
3071.000000	79.033372 
3070.000000	79.012499 
3069.000000	78.990752 
3068.000000	78.987979 
3067.000000	79.007590 
3066.000000	79.037872 
3065.000000	79.068756 
3064.000000	79.102109 
3063.000000	79.143266 
3062.000000	79.188253 
3061.000000	79.225459 
3060.000000	79.248533 
3059.000000	79.262067 
3058.000000	79.273977 
3057.000000	79.286790 
3056.000000	79.298036 
3055.000000	79.305898 
3054.000000	79.311376 
3053.000000	79.317918 
3052.000000	79.333187 
3051.000000	79.369139 
3050.000000	79.433092 
3049.000000	79.514570 
3048.000000	79.586139 
3047.000000	79.624849 
3046.000000	79.633459 
3045.000000	79.636294 
3044.000000	79.654540 
3043.000000	79.690955 
3042.000000	79.738226 
3041.000000	79.791757 
3040.000000	79.846733 
3039.000000	79.889249 
3038.000000	79.903043 
3037.000000	79.887597 
3036.000000	79.862412 
3035.000000	79.851004 
3034.000000	79.864251 
3033.000000	79.897646 
3032.000000	79.936159 
3031.000000	79.960639 
3030.000000	79.960251 
3029.000000	79.945706 
3028.000000	79.944174 
3027.000000	79.973491 
3026.000000	80.023456 
3025.000000	80.066604 
3024.000000	80.085182 
3023.000000	80.083489 
3022.000000	80.077954 
3021.000000	80.082604 
3020.000000	80.102821 
3019.000000	80.135357 
3018.000000	80.171903 
3017.000000	80.206634 
3016.000000	80.242169 
3015.000000	80.285123 
3014.000000	80.334711 
3013.000000	80.378813 
3012.000000	80.403245 
3011.000000	80.404147 
3010.000000	80.390163 
3009.000000	80.372659 
3008.000000	80.354968 
3007.000000	80.334021 
3006.000000	80.314878 
3005.000000	80.319134 
3004.000000	80.367892 
3003.000000	80.451803 
3002.000000	80.526583 
3001.000000	80.549265 
3000.000000	80.518279 
2999.000000	80.472028 
2998.000000	80.450239 
2997.000000	80.462889 
2996.000000	80.492523 
2995.000000	80.516201 
2994.000000	80.523428 
2993.000000	80.521681 
2992.000000	80.529078 
2991.000000	80.557091 
2990.000000	80.597014 
2989.000000	80.626003 
2988.000000	80.626436 
2987.000000	80.595962 
2986.000000	80.542022 
2985.000000	80.476713 
2984.000000	80.418353 
2983.000000	80.385639 
2982.000000	80.381337 
2981.000000	80.386601 
2980.000000	80.378655 
2979.000000	80.351632 
2978.000000	80.316491 
2977.000000	80.286394 
2976.000000	80.268899 
2975.000000	80.267091 
2974.000000	80.277610 
2973.000000	80.286366 
2972.000000	80.274461 
2971.000000	80.233308 
2970.000000	80.173286 
2969.000000	80.116727 
2968.000000	80.082618 
2967.000000	80.074224 
2966.000000	80.077800 
2965.000000	80.074400 
2964.000000	80.056050 
2963.000000	80.029864 
2962.000000	80.006029 
2961.000000	79.986297 
2960.000000	79.967131 
2959.000000	79.948629 
2958.000000	79.934422 
2957.000000	79.926699 
2956.000000	79.928620 
2955.000000	79.948077 
2954.000000	79.989115 
2953.000000	80.039478 
2952.000000	80.077094 
2951.000000	80.092332 
2950.000000	80.095737 
2949.000000	80.098608 
2948.000000	80.094725 
2947.000000	80.070073 
2946.000000	80.026246 
2945.000000	79.982569 
2944.000000	79.952867 
2943.000000	79.929401 
2942.000000	79.896177 
2941.000000	79.852756 
2940.000000	79.815189 
2939.000000	79.791891 
2938.000000	79.766117 
2937.000000	79.709743 
2936.000000	79.613560 
2935.000000	79.499859 
2934.000000	79.403269 
2933.000000	79.341805 
2932.000000	79.306518 
2931.000000	79.275960 
2930.000000	79.237895 
2929.000000	79.197279 
2928.000000	79.165098 
2927.000000	79.140903 
2926.000000	79.109424 
2925.000000	79.057147 
2924.000000	78.991293 
2923.000000	78.937565 
2922.000000	78.918280 
2921.000000	78.935812 
2920.000000	78.979333 
2919.000000	79.042837 
2918.000000	79.132025 
2917.000000	79.254792 
2916.000000	79.409561 
2915.000000	79.583920 
2914.000000	79.762751 
2913.000000	79.936058 
2912.000000	80.099185 
2911.000000	80.246274 
2910.000000	80.366233 
2909.000000	80.448409 
2908.000000	80.492214 
2907.000000	80.509092 
2906.000000	80.516046 
2905.000000	80.529824 
2904.000000	80.563543 
2903.000000	80.620969 
2902.000000	80.692599 
2901.000000	80.765488 
2900.000000	80.834983 
2899.000000	80.902923 
2898.000000	80.961158 
2897.000000	80.991573 
2896.000000	80.990780 
2895.000000	80.984693 
2894.000000	81.006784 
2893.000000	81.065848 
2892.000000	81.144440 
2891.000000	81.222283 
2890.000000	81.288652 
2889.000000	81.335743 
2888.000000	81.357844 
2887.000000	81.362476 
2886.000000	81.369620 
2885.000000	81.391008 
2884.000000	81.415833 
2883.000000	81.423442 
2882.000000	81.406663 
2881.000000	81.377927 
2880.000000	81.355982 
2879.000000	81.351250 
2878.000000	81.361392 
2877.000000	81.375061 
2876.000000	81.379498 
2875.000000	81.368408 
2874.000000	81.346987 
2873.000000	81.330837 
2872.000000	81.337018 
2871.000000	81.369519 
2870.000000	81.411093 
2869.000000	81.435335 
2868.000000	81.433682 
2867.000000	81.426267 
2866.000000	81.438752 
2865.000000	81.470122 
2864.000000	81.490957 
2863.000000	81.473068 
2862.000000	81.413451 
2861.000000	81.330995 
2860.000000	81.250214 
2859.000000	81.190003 
2858.000000	81.156907 
2857.000000	81.142036 
2856.000000	81.129107 
2855.000000	81.110317 
2854.000000	81.090766 
2853.000000	81.077075 
2852.000000	81.069683 
2851.000000	81.070524 
2850.000000	81.090759 
2849.000000	81.143919 
2848.000000	81.234039 
2847.000000	81.354222 
2846.000000	81.492128 
2845.000000	81.633252 
2844.000000	81.764455 
2843.000000	81.880910 
2842.000000	81.987594 
2841.000000	82.089884 
2840.000000	82.184428 
2839.000000	82.261894 
2838.000000	82.316711 
2837.000000	82.352921 
2836.000000	82.383631 
2835.000000	82.425296 
2834.000000	82.485572 
2833.000000	82.553070 
2832.000000	82.604506 
2831.000000	82.627879 
2830.000000	82.635217 
2829.000000	82.647618 
2828.000000	82.672043 
2827.000000	82.698336 
2826.000000	82.715960 
2825.000000	82.726499 
2824.000000	82.740252 
2823.000000	82.766570 
2822.000000	82.807982 
2821.000000	82.858393 
2820.000000	82.904529 
2819.000000	82.932602 
2818.000000	82.937446 
2817.000000	82.926616 
2816.000000	82.914829 
2815.000000	82.912638 
2814.000000	82.918581 
2813.000000	82.923330 
2812.000000	82.922937 
2811.000000	82.925567 
2810.000000	82.941077 
2809.000000	82.966219 
2808.000000	82.987211 
2807.000000	82.997074 
2806.000000	83.003354 
2805.000000	83.017107 
2804.000000	83.041555 
2803.000000	83.073466 
2802.000000	83.106613 
2801.000000	83.129245 
2800.000000	83.127986 
2799.000000	83.103459 
2798.000000	83.076727 
2797.000000	83.070722 
2796.000000	83.087443 
2795.000000	83.109750 
2794.000000	83.121994 
2793.000000	83.121336 
2792.000000	83.112659 
2791.000000	83.102596 
2790.000000	83.098792 
2789.000000	83.106317 
2788.000000	83.122638 
2787.000000	83.141858 
2786.000000	83.164871 
2785.000000	83.199058 
2784.000000	83.245376 
2783.000000	83.290247 
2782.000000	83.314310 
2781.000000	83.309068 
2780.000000	83.284793 
2779.000000	83.261843 
2778.000000	83.252817 
2777.000000	83.253036 
2776.000000	83.251114 
2775.000000	83.247391 
2774.000000	83.254702 
2773.000000	83.279618 
2772.000000	83.313014 
2771.000000	83.344679 
2770.000000	83.376089 
2769.000000	83.408004 
2768.000000	83.425203 
2767.000000	83.411284 
2766.000000	83.376347 
2765.000000	83.353466 
2764.000000	83.363517 
2763.000000	83.395789 
2762.000000	83.426386 
2761.000000	83.444058 
2760.000000	83.452598 
2759.000000	83.459123 
2758.000000	83.468612 
2757.000000	83.482986 
2756.000000	83.497493 
2755.000000	83.501919 
2754.000000	83.491131 
2753.000000	83.471267 
2752.000000	83.452124 
2751.000000	83.437943 
2750.000000	83.429562 
2749.000000	83.430817 
2748.000000	83.448145 
2747.000000	83.485971 
2746.000000	83.542912 
2745.000000	83.606223 
2744.000000	83.649278 
2743.000000	83.646820 
2742.000000	83.602659 
2741.000000	83.556017 
2740.000000	83.548811 
2739.000000	83.584518 
2738.000000	83.624903 
2737.000000	83.626564 
2736.000000	83.579165 
2735.000000	83.512347 
2734.000000	83.472339 
2733.000000	83.489282 
2732.000000	83.556397 
2731.000000	83.635706 
2730.000000	83.687647 
2729.000000	83.700262 
2728.000000	83.691878 
2727.000000	83.688036 
2726.000000	83.698534 
2725.000000	83.715873 
2724.000000	83.729695 
2723.000000	83.737449 
2722.000000	83.740477 
2721.000000	83.735784 
2720.000000	83.719181 
2719.000000	83.697087 
2718.000000	83.686404 
2717.000000	83.695698 
2716.000000	83.712072 
2715.000000	83.716568 
2714.000000	83.709783 
2713.000000	83.710370 
2712.000000	83.727569 
2711.000000	83.748810 
2710.000000	83.759137 
2709.000000	83.760661 
2708.000000	83.764242 
2707.000000	83.772309 
2706.000000	83.781100 
2705.000000	83.792649 
2704.000000	83.812062 
2703.000000	83.835958 
2702.000000	83.854595 
2701.000000	83.864287 
2700.000000	83.869072 
2699.000000	83.872138 
2698.000000	83.874548 
2697.000000	83.879973 
2696.000000	83.889601 
2695.000000	83.892835 
2694.000000	83.875190 
2693.000000	83.838806 
2692.000000	83.805387 
2691.000000	83.794160 
2690.000000	83.804831 
2689.000000	83.825934 
2688.000000	83.851600 
2687.000000	83.882713 
2686.000000	83.916856 
2685.000000	83.945568 
2684.000000	83.961499 
2683.000000	83.964115 
2682.000000	83.958585 
2681.000000	83.951511 
2680.000000	83.947159 
2679.000000	83.946142 
2678.000000	83.947893 
2677.000000	83.953724 
2676.000000	83.965061 
2675.000000	83.978596 
2674.000000	83.986345 
2673.000000	83.982155 
2672.000000	83.967479 
2671.000000	83.951568 
2670.000000	83.947338 
2669.000000	83.963510 
2668.000000	83.995316 
2667.000000	84.024159 
2666.000000	84.032593 
2665.000000	84.020609 
2664.000000	84.002453 
2663.000000	83.988535 
2662.000000	83.977011 
2661.000000	83.963134 
2660.000000	83.948335 
2659.000000	83.937328 
2658.000000	83.934005 
2657.000000	83.943811 
2656.000000	83.971749 
2655.000000	84.011666 
2654.000000	84.044247 
2653.000000	84.053922 
2652.000000	84.044176 
2651.000000	84.030157 
2650.000000	84.021362 
2649.000000	84.019545 
2648.000000	84.027888 
2647.000000	84.049630 
2646.000000	84.078081 
2645.000000	84.100309 
2644.000000	84.114649 
2643.000000	84.135123 
2642.000000	84.172896 
2641.000000	84.219905 
2640.000000	84.256723 
2639.000000	84.271275 
2638.000000	84.264043 
2637.000000	84.240207 
2636.000000	84.205576 
2635.000000	84.169326 
2634.000000	84.142980 
2633.000000	84.134092 
2632.000000	84.143714 
2631.000000	84.169135 
2630.000000	84.204133 
2629.000000	84.236950 
2628.000000	84.255160 
2627.000000	84.256308 
2626.000000	84.249630 
2625.000000	84.244530 
2624.000000	84.241977 
2623.000000	84.240874 
2622.000000	84.246860 
2621.000000	84.265970 
2620.000000	84.291168 
2619.000000	84.304447 
2618.000000	84.295050 
2617.000000	84.269665 
2616.000000	84.243033 
2615.000000	84.226414 
2614.000000	84.228784 
2613.000000	84.258575 
2612.000000	84.312420 
2611.000000	84.366165 
2610.000000	84.390787 
2609.000000	84.381136 
2608.000000	84.360997 
2607.000000	84.356521 
2606.000000	84.371374 
2605.000000	84.390489 
2604.000000	84.399054 
2603.000000	84.390568 
2602.000000	84.363419 
2601.000000	84.321578 
2600.000000	84.278753 
2599.000000	84.251986 
2598.000000	84.246792 
2597.000000	84.254038 
2596.000000	84.265146 
2595.000000	84.284905 
2594.000000	84.322477 
2593.000000	84.371823 
2592.000000	84.409415 
2591.000000	84.415226 
2590.000000	84.391890 
2589.000000	84.359236 
2588.000000	84.333241 
2587.000000	84.316181 
2586.000000	84.306112 
2585.000000	84.307478 
2584.000000	84.327085 
2583.000000	84.363282 
2582.000000	84.404668 
2581.000000	84.439034 
2580.000000	84.460755 
2579.000000	84.470991 
2578.000000	84.474447 
2577.000000	84.475511 
2576.000000	84.474514 
2575.000000	84.468363 
2574.000000	84.457271 
2573.000000	84.448349 
2572.000000	84.447882 
2571.000000	84.451841 
2570.000000	84.450352 
2569.000000	84.441472 
2568.000000	84.433922 
2567.000000	84.434713 
2566.000000	84.440753 
2565.000000	84.445606 
2564.000000	84.448076 
2563.000000	84.448599 
2562.000000	84.441392 
2561.000000	84.417567 
2560.000000	84.377259 
2559.000000	84.335864 
2558.000000	84.316575 
2557.000000	84.333986 
2556.000000	84.380228 
2555.000000	84.427077 
2554.000000	84.447922 
2553.000000	84.440870 
2552.000000	84.426234 
2551.000000	84.420377 
2550.000000	84.419798 
2549.000000	84.414648 
2548.000000	84.407508 
2547.000000	84.407898 
2546.000000	84.414290 
2545.000000	84.415610 
2544.000000	84.410618 
2543.000000	84.412464 
2542.000000	84.428945 
2541.000000	84.448207 
2540.000000	84.452025 
2539.000000	84.438190 
2538.000000	84.422253 
2537.000000	84.419106 
2536.000000	84.428568 
2535.000000	84.438566 
2534.000000	84.438572 
2533.000000	84.430367 
2532.000000	84.428518 
2531.000000	84.448860 
2530.000000	84.492236 
2529.000000	84.539272 
2528.000000	84.565016 
2527.000000	84.560296 
2526.000000	84.536513 
2525.000000	84.509755 
2524.000000	84.485524 
2523.000000	84.462462 
2522.000000	84.445433 
2521.000000	84.444935 
2520.000000	84.461668 
2519.000000	84.480435 
2518.000000	84.486302 
2517.000000	84.482117 
2516.000000	84.482023 
2515.000000	84.490748 
2514.000000	84.499382 
2513.000000	84.501502 
2512.000000	84.501848 
2511.000000	84.504299 
2510.000000	84.501983 
2509.000000	84.488724 
2508.000000	84.473999 
2507.000000	84.476304 
2506.000000	84.503882 
2505.000000	84.549444 
2504.000000	84.600281 
2503.000000	84.644036 
2502.000000	84.666891 
2501.000000	84.658919 
2500.000000	84.625539 
2499.000000	84.585669 
2498.000000	84.554734 
2497.000000	84.535333 
2496.000000	84.525770 
2495.000000	84.528799 
2494.000000	84.546641 
2493.000000	84.574098 
2492.000000	84.602937 
2491.000000	84.628937 
2490.000000	84.649432 
2489.000000	84.658749 
2488.000000	84.653338 
2487.000000	84.639256 
2486.000000	84.627822 
2485.000000	84.624236 
2484.000000	84.625574 
2483.000000	84.629092 
2482.000000	84.636069 
2481.000000	84.645437 
2480.000000	84.648766 
2479.000000	84.636424 
2478.000000	84.608595 
2477.000000	84.577676 
2476.000000	84.557935 
2475.000000	84.552689 
2474.000000	84.553044 
2473.000000	84.550533 
2472.000000	84.548802 
2471.000000	84.558930 
2470.000000	84.584019 
2469.000000	84.614341 
2468.000000	84.639569 
2467.000000	84.659070 
2466.000000	84.674545 
2465.000000	84.677854 
2464.000000	84.656066 
2463.000000	84.609660 
2462.000000	84.558558 
2461.000000	84.526530 
2460.000000	84.523274 
2459.000000	84.543256 
2458.000000	84.576381 
2457.000000	84.613697 
2456.000000	84.644806 
2455.000000	84.657831 
2454.000000	84.647537 
2453.000000	84.622848 
2452.000000	84.602426 
2451.000000	84.599859 
2450.000000	84.613194 
2449.000000	84.630089 
2448.000000	84.642557 
2447.000000	84.653452 
2446.000000	84.667178 
2445.000000	84.677914 
2444.000000	84.672473 
2443.000000	84.645385 
2442.000000	84.607487 
2441.000000	84.577943 
2440.000000	84.570246 
2439.000000	84.586215 
2438.000000	84.618126 
2437.000000	84.651141 
2436.000000	84.667045 
2435.000000	84.655393 
2434.000000	84.625682 
2433.000000	84.603710 
2432.000000	84.609439 
2431.000000	84.638679 
2430.000000	84.669394 
2429.000000	84.683815 
2428.000000	84.679667 
2427.000000	84.663101 
2426.000000	84.640843 
2425.000000	84.622216 
2424.000000	84.618682 
2423.000000	84.631855 
2422.000000	84.645411 
2421.000000	84.638123 
2420.000000	84.605659 
2419.000000	84.564177 
2418.000000	84.533238 
2417.000000	84.521367 
2416.000000	84.526510 
2415.000000	84.541144 
2414.000000	84.554430 
2413.000000	84.558614 
2412.000000	84.559389 
2411.000000	84.573151 
2410.000000	84.605910 
2409.000000	84.638999 
2408.000000	84.645633 
2407.000000	84.622330 
2406.000000	84.596186 
2405.000000	84.597300 
2404.000000	84.628048 
2403.000000	84.662725 
2402.000000	84.674909 
2401.000000	84.661446 
2400.000000	84.640049 
2399.000000	84.627875 
2398.000000	84.626399 
2397.000000	84.627170 
2396.000000	84.627373 
2395.000000	84.634431 
2394.000000	84.655465 
2393.000000	84.687166 
2392.000000	84.718232 
2391.000000	84.737917 
2390.000000	84.739250 
2389.000000	84.718545 
2388.000000	84.678926 
2387.000000	84.635281 
2386.000000	84.610465 
2385.000000	84.621718 
2384.000000	84.668394 
2383.000000	84.731508 
2382.000000	84.785370 
2381.000000	84.813352 
2380.000000	84.817648 
2379.000000	84.814596 
2378.000000	84.817210 
2377.000000	84.821025 
2376.000000	84.810293 
2375.000000	84.781629 
2374.000000	84.759184 
2373.000000	84.777512 
2372.000000	84.840587 
2371.000000	84.900953 
2370.000000	84.898684 
2369.000000	84.835855 
2368.000000	84.793307 
2367.000000	84.833758 
2366.000000	84.892635 
2365.000000	84.827787 
2364.000000	84.614142 
2363.000000	84.426809 
2362.000000	84.460689 
2361.000000	84.708109 
2360.000000	84.982782 
2359.000000	85.132608 
2358.000000	85.149594 
2357.000000	85.082786 
2356.000000	84.957236 
2355.000000	84.805946 
2354.000000	84.697033 
2353.000000	84.674629 
2352.000000	84.711508 
2351.000000	84.756236 
2350.000000	84.788234 
2349.000000	84.811868 
2348.000000	84.830013 
2347.000000	84.838689 
2346.000000	84.835649 
2345.000000	84.823746 
2344.000000	84.816214 
2343.000000	84.823759 
2342.000000	84.844370 
2341.000000	84.867688 
2340.000000	84.883272 
2339.000000	84.892456 
2338.000000	84.904428 
2337.000000	84.921924 
2336.000000	84.930137 
2335.000000	84.913756 
2334.000000	84.876819 
2333.000000	84.839514 
2332.000000	84.811462 
2331.000000	84.788706 
2330.000000	84.770797 
2329.000000	84.771890 
2328.000000	84.797038 
2327.000000	84.822778 
2326.000000	84.818919 
2325.000000	84.784353 
2324.000000	84.758031 
2323.000000	84.776261 
2322.000000	84.825198 
2321.000000	84.848925 
2320.000000	84.810776 
2319.000000	84.737975 
2318.000000	84.689533 
2317.000000	84.698945 
2316.000000	84.750620 
2315.000000	84.807774 
2314.000000	84.843564 
2313.000000	84.852946 
2312.000000	84.845275 
2311.000000	84.834990 
2310.000000	84.830826 
2309.000000	84.826851 
2308.000000	84.807161 
2307.000000	84.764969 
2306.000000	84.714323 
2305.000000	84.677622 
2304.000000	84.664272 
2303.000000	84.666183 
2302.000000	84.670037 
2301.000000	84.668682 
2300.000000	84.660418 
2299.000000	84.646621 
2298.000000	84.632552 
2297.000000	84.626986 
2296.000000	84.634033 
2295.000000	84.645841 
2294.000000	84.647690 
2293.000000	84.631948 
2292.000000	84.606018 
2291.000000	84.583441 
2290.000000	84.569309 
2289.000000	84.556277 
2288.000000	84.536751 
2287.000000	84.514502 
2286.000000	84.501279 
2285.000000	84.503397 
2284.000000	84.517588 
2283.000000	84.539460 
2282.000000	84.568315 
2281.000000	84.598749 
2280.000000	84.613661 
2279.000000	84.596274 
2278.000000	84.551136 
2277.000000	84.506837 
2276.000000	84.492413 
2275.000000	84.512333 
2274.000000	84.546191 
2273.000000	84.571168 
2272.000000	84.582386 
2271.000000	84.591673 
2270.000000	84.608337 
2269.000000	84.624251 
2268.000000	84.621348 
2267.000000	84.594386 
2266.000000	84.561516 
2265.000000	84.548274 
2264.000000	84.563233 
2263.000000	84.592915 
2262.000000	84.617408 
2261.000000	84.624859 
2260.000000	84.614022 
2259.000000	84.591990 
2258.000000	84.571289 
2257.000000	84.560493 
2256.000000	84.552995 
2255.000000	84.531949 
2254.000000	84.491662 
2253.000000	84.449542 
2252.000000	84.430832 
2251.000000	84.445231 
2250.000000	84.483175 
2249.000000	84.529359 
2248.000000	84.570332 
2247.000000	84.592347 
2246.000000	84.582660 
2245.000000	84.540769 
2244.000000	84.485011 
2243.000000	84.442944 
2242.000000	84.432877 
2241.000000	84.451575 
2240.000000	84.476955 
2239.000000	84.485291 
2238.000000	84.471139 
2237.000000	84.451009 
2236.000000	84.444295 
2235.000000	84.451703 
2234.000000	84.456642 
2233.000000	84.446721 
2232.000000	84.427630 
2231.000000	84.414789 
2230.000000	84.418075 
2229.000000	84.438083 
2228.000000	84.471134 
2227.000000	84.510993 
2226.000000	84.547093 
2225.000000	84.567408 
2224.000000	84.566251 
2223.000000	84.548461 
2222.000000	84.525188 
2221.000000	84.505388 
2220.000000	84.490768 
2219.000000	84.478593 
2218.000000	84.469199 
2217.000000	84.468716 
2216.000000	84.482048 
2215.000000	84.504381 
2214.000000	84.523208 
2213.000000	84.529369 
2212.000000	84.523693 
2211.000000	84.512918 
2210.000000	84.502431 
2209.000000	84.493541 
2208.000000	84.484570 
2207.000000	84.473934 
2206.000000	84.464950 
2205.000000	84.466855 
2204.000000	84.485673 
2203.000000	84.513048 
2202.000000	84.530279 
2201.000000	84.527200 
2200.000000	84.513292 
2199.000000	84.507292 
2198.000000	84.519923 
2197.000000	84.549153 
2196.000000	84.585387 
2195.000000	84.614636 
2194.000000	84.621530 
2193.000000	84.599444 
2192.000000	84.559204 
2191.000000	84.521886 
2190.000000	84.501128 
2189.000000	84.494703 
2188.000000	84.491590 
2187.000000	84.483211 
2186.000000	84.469776 
2185.000000	84.461384 
2184.000000	84.471912 
2183.000000	84.505063 
2182.000000	84.545681 
2181.000000	84.571242 
2180.000000	84.574197 
2179.000000	84.567386 
2178.000000	84.565354 
2177.000000	84.567300 
2176.000000	84.562886 
2175.000000	84.548471 
2174.000000	84.529997 
2173.000000	84.512592 
2172.000000	84.495367 
2171.000000	84.477591 
2170.000000	84.464146 
2169.000000	84.461544 
2168.000000	84.470639 
2167.000000	84.485358 
2166.000000	84.497933 
2165.000000	84.504949 
2164.000000	84.509431 
2163.000000	84.516936 
2162.000000	84.527976 
2161.000000	84.534660 
2160.000000	84.528126 
2159.000000	84.511280 
2158.000000	84.501621 
2157.000000	84.516925 
2156.000000	84.556191 
2155.000000	84.596525 
2154.000000	84.611224 
2153.000000	84.591831 
2152.000000	84.553001 
2151.000000	84.517497 
2150.000000	84.498356 
2149.000000	84.493943 
2148.000000	84.495406 
2147.000000	84.496501 
2146.000000	84.498605 
2145.000000	84.509060 
2144.000000	84.533851 
2143.000000	84.569721 
2142.000000	84.604167 
2141.000000	84.625449 
2140.000000	84.632439 
2139.000000	84.632524 
2138.000000	84.630556 
2137.000000	84.623569 
2136.000000	84.607801 
2135.000000	84.588124 
2134.000000	84.577340 
2133.000000	84.585417 
2132.000000	84.609662 
2131.000000	84.635334 
2130.000000	84.646636 
2129.000000	84.639255 
2128.000000	84.623687 
2127.000000	84.615950 
2126.000000	84.623849 
2125.000000	84.640797 
2124.000000	84.651765 
2123.000000	84.646085 
2122.000000	84.627263 
2121.000000	84.611884 
2120.000000	84.616652 
2119.000000	84.643098 
2118.000000	84.674627 
2117.000000	84.690346 
2116.000000	84.682360 
2115.000000	84.659524 
2114.000000	84.636706 
2113.000000	84.623412 
2112.000000	84.621480 
2111.000000	84.628803 
2110.000000	84.642335 
2109.000000	84.658598 
2108.000000	84.673587 
2107.000000	84.683844 
2106.000000	84.689196 
2105.000000	84.694613 
2104.000000	84.706059 
2103.000000	84.721422 
2102.000000	84.728517 
2101.000000	84.718114 
2100.000000	84.698887 
2099.000000	84.692375 
2098.000000	84.709256 
2097.000000	84.735332 
2096.000000	84.746957 
2095.000000	84.738746 
2094.000000	84.729556 
2093.000000	84.738940 
2092.000000	84.762580 
2091.000000	84.776111 
2090.000000	84.762317 
2089.000000	84.729794 
2088.000000	84.702735 
2087.000000	84.696328 
2086.000000	84.706561 
2085.000000	84.721225 
2084.000000	84.734297 
2083.000000	84.748082 
2082.000000	84.766102 
2081.000000	84.787338 
2080.000000	84.805713 
2079.000000	84.813759 
2078.000000	84.809369 
2077.000000	84.799873 
2076.000000	84.795465 
2075.000000	84.796838 
2074.000000	84.794634 
2073.000000	84.784689 
2072.000000	84.777437 
2071.000000	84.784575 
2070.000000	84.800755 
2069.000000	84.809179 
2068.000000	84.805439 
2067.000000	84.805345 
2066.000000	84.824683 
2065.000000	84.857685 
2064.000000	84.881435 
2063.000000	84.879322 
2062.000000	84.856034 
2061.000000	84.831701 
2060.000000	84.825200 
2059.000000	84.840943 
2058.000000	84.867819 
2057.000000	84.889974 
2056.000000	84.899234 
2055.000000	84.898317 
2054.000000	84.894950 
2053.000000	84.895728 
2052.000000	84.903265 
2051.000000	84.914219 
2050.000000	84.920174 
2049.000000	84.915291 
2048.000000	84.903326 
2047.000000	84.893249 
2046.000000	84.889135 
2045.000000	84.889109 
2044.000000	84.892350 
2043.000000	84.900718 
2042.000000	84.913555 
2041.000000	84.926809 
2040.000000	84.937316 
2039.000000	84.942081 
2038.000000	84.934511 
2037.000000	84.910460 
2036.000000	84.880165 
2035.000000	84.864978 
2034.000000	84.876466 
2033.000000	84.903752 
2032.000000	84.925785 
2031.000000	84.931370 
2030.000000	84.923312 
2029.000000	84.909316 
2028.000000	84.896140 
2027.000000	84.889928 
2026.000000	84.895385 
2025.000000	84.914076 
2024.000000	84.944780 
2023.000000	84.982990 
2022.000000	85.018578 
2021.000000	85.039055 
2020.000000	85.038965 
2019.000000	85.024044 
2018.000000	85.005363 
2017.000000	84.992950 
2016.000000	84.994311 
2015.000000	85.011586 
2014.000000	85.036369 
2013.000000	85.052848 
2012.000000	85.052168 
2011.000000	85.042017 
2010.000000	85.037031 
2009.000000	85.041497 
2008.000000	85.046412 
2007.000000	85.042423 
2006.000000	85.030446 
2005.000000	85.020225 
2004.000000	85.023036 
2003.000000	85.045149 
2002.000000	85.082744 
2001.000000	85.121224 
2000.000000	85.143979 
1999.000000	85.145322 
1998.000000	85.133587 
1997.000000	85.121347 
1996.000000	85.116068 
1995.000000	85.118448 
1994.000000	85.125216 
1993.000000	85.132715 
1992.000000	85.139852 
1991.000000	85.146393 
1990.000000	85.148104 
1989.000000	85.138490 
1988.000000	85.117367 
1987.000000	85.095014 
1986.000000	85.084974 
1985.000000	85.092546 
1984.000000	85.111096 
1983.000000	85.128400 
1982.000000	85.136163 
1981.000000	85.134283 
1980.000000	85.126717 
1979.000000	85.113853 
1978.000000	85.092472 
1977.000000	85.065898 
1976.000000	85.049435 
1975.000000	85.055872 
1974.000000	85.077769 
1973.000000	85.095791 
1972.000000	85.104613 
1971.000000	85.116743 
1970.000000	85.138242 
1969.000000	85.156677 
1968.000000	85.160810 
1967.000000	85.158921 
1966.000000	85.165142 
1965.000000	85.178507 
1964.000000	85.189792 
1963.000000	85.197360 
1962.000000	85.201957 
1961.000000	85.195887 
1960.000000	85.172904 
1959.000000	85.144653 
1958.000000	85.132097 
1957.000000	85.140644 
1956.000000	85.155476 
1955.000000	85.162081 
1954.000000	85.161038 
1953.000000	85.160274 
1952.000000	85.160248 
1951.000000	85.152387 
1950.000000	85.131227 
1949.000000	85.104839 
1948.000000	85.090685 
1947.000000	85.100954 
1946.000000	85.131238 
1945.000000	85.163739 
1944.000000	85.181369 
1943.000000	85.178556 
1942.000000	85.162956 
1941.000000	85.149957 
1940.000000	85.154138 
1939.000000	85.179409 
1938.000000	85.210815 
1937.000000	85.224473 
1936.000000	85.214516 
1935.000000	85.201207 
1934.000000	85.205014 
1933.000000	85.224101 
1932.000000	85.244018 
1931.000000	85.258283 
1930.000000	85.268523 
1929.000000	85.270792 
1928.000000	85.256543 
1927.000000	85.227869 
1926.000000	85.199584 
1925.000000	85.184149 
1924.000000	85.183783 
1923.000000	85.195843 
1922.000000	85.216050 
1921.000000	85.232730 
1920.000000	85.233031 
1919.000000	85.217398 
1918.000000	85.200018 
1917.000000	85.191190 
1916.000000	85.184137 
1915.000000	85.173202 
1914.000000	85.169054 
1913.000000	85.181267 
1912.000000	85.200235 
1911.000000	85.207235 
1910.000000	85.197040 
1909.000000	85.180582 
1908.000000	85.168192 
1907.000000	85.160750 
1906.000000	85.155723 
1905.000000	85.151921 
1904.000000	85.149561 
1903.000000	85.151690 
1902.000000	85.163843 
1901.000000	85.183395 
1900.000000	85.196667 
1899.000000	85.195139 
1898.000000	85.187516 
1897.000000	85.189186 
1896.000000	85.204433 
1895.000000	85.225797 
1894.000000	85.248080 
1893.000000	85.271846 
1892.000000	85.296262 
1891.000000	85.316656 
1890.000000	85.327293 
1889.000000	85.324291 
1888.000000	85.305549 
1887.000000	85.275693 
1886.000000	85.248782 
1885.000000	85.235801 
1884.000000	85.234407 
1883.000000	85.237835 
1882.000000	85.247024 
1881.000000	85.263967 
1880.000000	85.281704 
1879.000000	85.292267 
1878.000000	85.297690 
1877.000000	85.304674 
1876.000000	85.312323 
1875.000000	85.312545 
1874.000000	85.302617 
1873.000000	85.291498 
1872.000000	85.291791 
1871.000000	85.308083 
1870.000000	85.330250 
1869.000000	85.338122 
1868.000000	85.318911 
1867.000000	85.281036 
1866.000000	85.250560 
1865.000000	85.246757 
1864.000000	85.262403 
1863.000000	85.275860 
1862.000000	85.277544 
1861.000000	85.274252 
1860.000000	85.271329 
1859.000000	85.265563 
1858.000000	85.256645 
1857.000000	85.250456 
1856.000000	85.249166 
1855.000000	85.250830 
1854.000000	85.257136 
1853.000000	85.269453 
1852.000000	85.281014 
1851.000000	85.284861 
1850.000000	85.284397 
1849.000000	85.285095 
1848.000000	85.285095 
1847.000000	85.282162 
1846.000000	85.284232 
1845.000000	85.301288 
1844.000000	85.329120 
1843.000000	85.348283 
1842.000000	85.343807 
1841.000000	85.323753 
1840.000000	85.308753 
1839.000000	85.309743 
1838.000000	85.322820 
1837.000000	85.337519 
1836.000000	85.343593 
1835.000000	85.337182 
1834.000000	85.327350 
1833.000000	85.331093 
1832.000000	85.358249 
1831.000000	85.396414 
1830.000000	85.416913 
1829.000000	85.405957 
1828.000000	85.373943 
1827.000000	85.337087 
1826.000000	85.305705 
1825.000000	85.284562 
1824.000000	85.278586 
1823.000000	85.284408 
1822.000000	85.290431 
1821.000000	85.291776 
1820.000000	85.292895 
1819.000000	85.297435 
1818.000000	85.303727 
1817.000000	85.311974 
1816.000000	85.324892 
1815.000000	85.338659 
1814.000000	85.344380 
1813.000000	85.338608 
1812.000000	85.326012 
1811.000000	85.310657 
1810.000000	85.295777 
1809.000000	85.291066 
1808.000000	85.300582 
1807.000000	85.311648 
1806.000000	85.307238 
1805.000000	85.283251 
1804.000000	85.250712 
1803.000000	85.225641 
1802.000000	85.217477 
1801.000000	85.223294 
1800.000000	85.228693 
1799.000000	85.218631 
1798.000000	85.196959 
1797.000000	85.185125 
1796.000000	85.195078 
1795.000000	85.217296 
1794.000000	85.231101 
1793.000000	85.220347 
1792.000000	85.190276 
1791.000000	85.161856 
1790.000000	85.147609 
1789.000000	85.148524 
1788.000000	85.154802 
1787.000000	85.149151 
1786.000000	85.125124 
1785.000000	85.101320 
1784.000000	85.102653 
1783.000000	85.130167 
1782.000000	85.158833 
1781.000000	85.158183 
1780.000000	85.120256 
1779.000000	85.068609 
1778.000000	85.031110 
1777.000000	85.015503 
1776.000000	85.014101 
1775.000000	85.023305 
1774.000000	85.041924 
1773.000000	85.052570 
1772.000000	85.042119 
1771.000000	85.022613 
1770.000000	84.999919 
1769.000000	84.979477 
1768.000000	84.972675 
1767.000000	84.977461 
1766.000000	84.981813 
1765.000000	84.985981 
1764.000000	85.003129 
1763.000000	85.031976 
1762.000000	85.042863 
1761.000000	85.011366 
1760.000000	84.951442 
1759.000000	84.897828 
1758.000000	84.872134 
1757.000000	84.866623 
1756.000000	84.858370 
1755.000000	84.829551 
1754.000000	84.771373 
1753.000000	84.687557 
1752.000000	84.597731 
1751.000000	84.532654 
1750.000000	84.497089 
1749.000000	84.453213 
1748.000000	84.381420 
1747.000000	84.308829 
1746.000000	84.257784 
1745.000000	84.215180 
1744.000000	84.166287 
1743.000000	84.123541 
1742.000000	84.106624 
1741.000000	84.113736 
1740.000000	84.123681 
1739.000000	84.114563 
1738.000000	84.073896 
1737.000000	84.007628 
1736.000000	83.939839 
1735.000000	83.892714 
1734.000000	83.889015 
1733.000000	83.940075 
1732.000000	83.993655 
1731.000000	84.014503 
1730.000000	84.016873 
1729.000000	84.012217 
1728.000000	83.999097 
1727.000000	83.976610 
1726.000000	83.943724 
1725.000000	83.897969 
1724.000000	83.849320 
1723.000000	83.822324 
1722.000000	83.833243 
1721.000000	83.878340 
1720.000000	83.936381 
1719.000000	83.959671 
1718.000000	83.890932 
1717.000000	83.767543 
1716.000000	83.690054 
1715.000000	83.671382 
1714.000000	83.672768 
1713.000000	83.671283 
1712.000000	83.664806 
1711.000000	83.662889 
1710.000000	83.666441 
1709.000000	83.658985 
1708.000000	83.624647 
1707.000000	83.564972 
1706.000000	83.495598 
1705.000000	83.433768 
1704.000000	83.378165 
1703.000000	83.321709 
1702.000000	83.286670 
1701.000000	83.291714 
1700.000000	83.313817 
1699.000000	83.304588 
1698.000000	83.241796 
1697.000000	83.159897 
1696.000000	83.086857 
1695.000000	83.009783 
1694.000000	82.914902 
1693.000000	82.817254 
1692.000000	82.737585 
1691.000000	82.665503 
1690.000000	82.564503 
1689.000000	82.423362 
1688.000000	82.283199 
1687.000000	82.196296 
1686.000000	82.175275 
1685.000000	82.159669 
1684.000000	82.070948 
1683.000000	81.939659 
1682.000000	81.807876 
1681.000000	81.666159 
1680.000000	81.523026 
1679.000000	81.402363 
1678.000000	81.316888 
1677.000000	81.248507 
1676.000000	81.160348 
1675.000000	81.042561 
1674.000000	80.922549 
1673.000000	80.808243 
1672.000000	80.688190 
1671.000000	80.554184 
1670.000000	80.403820 
1669.000000	80.247794 
1668.000000	80.102316 
1667.000000	79.978612 
1666.000000	79.877461 
1665.000000	79.787933 
1664.000000	79.688641 
1663.000000	79.561220 
1662.000000	79.407392 
1661.000000	79.230036 
1660.000000	79.036284 
1659.000000	78.865213 
1658.000000	78.751904 
1657.000000	78.686748 
1656.000000	78.633833 
1655.000000	78.567278 
1654.000000	78.429806 
1653.000000	78.168222 
1652.000000	77.913218 
1651.000000	77.730746 
1650.000000	77.573860 
1649.000000	77.428444 
1648.000000	77.268215 
1647.000000	77.082870 
1646.000000	76.919944 
1645.000000	76.797175 
1644.000000	76.670658 
1643.000000	76.521317 
1642.000000	76.359374 
1641.000000	76.191003 
1640.000000	76.017251 
1639.000000	75.851816 
1638.000000	75.708940 
1637.000000	75.569410 
1636.000000	75.390573 
1635.000000	75.196106 
1634.000000	75.034368 
1633.000000	74.887711 
1632.000000	74.741366 
1631.000000	74.616167 
1630.000000	74.532857 
1629.000000	74.478768 
1628.000000	74.426082 
1627.000000	74.385726 
1626.000000	74.395063 
1625.000000	74.451135 
1624.000000	74.499106 
1623.000000	74.503394 
1622.000000	74.501503 
1621.000000	74.535052 
1620.000000	74.603064 
1619.000000	74.695638 
1618.000000	74.809528 
1617.000000	74.941624 
1616.000000	75.087266 
1615.000000	75.240598 
1614.000000	75.395463 
1613.000000	75.547894 
1612.000000	75.692595 
1611.000000	75.834609 
1610.000000	76.000406 
1609.000000	76.205026 
1608.000000	76.425055 
1607.000000	76.628501 
1606.000000	76.810282 
1605.000000	76.985459 
1604.000000	77.166190 
1603.000000	77.349118 
1602.000000	77.510097 
1601.000000	77.618899 
1600.000000	77.672068 
1599.000000	77.703831 
1598.000000	77.752738 
1597.000000	77.823934 
1596.000000	77.893355 
1595.000000	77.942202 
1594.000000	77.974751 
1593.000000	78.002190 
1592.000000	78.030005 
1591.000000	78.064542 
1590.000000	78.110038 
1589.000000	78.153813 
1588.000000	78.176022 
1587.000000	78.179598 
1586.000000	78.192052 
1585.000000	78.233179 
1584.000000	78.299631 
1583.000000	78.383774 
1582.000000	78.480848 
1581.000000	78.575039 
1580.000000	78.655361 
1579.000000	78.746231 
1578.000000	78.893448 
1577.000000	79.108352 
1576.000000	79.335632 
1575.000000	79.505120 
1574.000000	79.599282 
1573.000000	79.655245 
1572.000000	79.724489 
1571.000000	79.828386 
1570.000000	79.944144 
1569.000000	80.027038 
1568.000000	80.059547 
1567.000000	80.078061 
1566.000000	80.123148 
1565.000000	80.187621 
1564.000000	80.233233 
1563.000000	80.246767 
1562.000000	80.251299 
1561.000000	80.262944 
1560.000000	80.260557 
1559.000000	80.252570 
1558.000000	80.359704 
1557.000000	80.499656 
1556.000000	80.548884 
1555.000000	80.547741 
1554.000000	80.555371 
1553.000000	80.579530 
1552.000000	80.606321 
1551.000000	80.641770 
1550.000000	80.700953 
1549.000000	80.773282 
1548.000000	80.825632 
1547.000000	80.846481 
1546.000000	80.860846 
1545.000000	80.898204 
1544.000000	80.958825 
1543.000000	81.012482 
1542.000000	81.035674 
1541.000000	81.049901 
1540.000000	81.107678 
1539.000000	81.224674 
1538.000000	81.324373 
1537.000000	81.355007 
1536.000000	81.359248 
1535.000000	81.397074 
1534.000000	81.493782 
1533.000000	81.625157 
1532.000000	81.725076 
1531.000000	81.748495 
1530.000000	81.717771 
1529.000000	81.678676 
1528.000000	81.660021 
1527.000000	81.676721 
1526.000000	81.736448 
1525.000000	81.829763 
1524.000000	81.923097 
1523.000000	81.980093 
1522.000000	81.991098 
1521.000000	81.996918 
1520.000000	82.030426 
1519.000000	82.062208 
1518.000000	82.071900 
1517.000000	82.080371 
1516.000000	82.118322 
1515.000000	82.177615 
1514.000000	82.222662 
1513.000000	82.242123 
1512.000000	82.248486 
1511.000000	82.250001 
1510.000000	82.250286 
1509.000000	82.267465 
1508.000000	82.335405 
1507.000000	82.462484 
1506.000000	82.614287 
1505.000000	82.714516 
1504.000000	82.712832 
1503.000000	82.647073 
1502.000000	82.578400 
1501.000000	82.548795 
1500.000000	82.577945 
1499.000000	82.651314 
1498.000000	82.720316 
1497.000000	82.749517 
1496.000000	82.749029 
1495.000000	82.732243 
1494.000000	82.698036 
1493.000000	82.655301 
1492.000000	82.621152 
1491.000000	82.609116 
1490.000000	82.635575 
1489.000000	82.719224 
1488.000000	82.837020 
1487.000000	82.929471 
1486.000000	82.971015 
1485.000000	82.973504 
1484.000000	82.948429 
1483.000000	82.898869 
1482.000000	82.824393 
1481.000000	82.733179 
1480.000000	82.639824 
1479.000000	82.548650 
1478.000000	82.455841 
1477.000000	82.361238 
1476.000000	82.269806 
1475.000000	82.177846 
1474.000000	82.076472 
1473.000000	81.972724 
1472.000000	81.903279 
1471.000000	81.876501 
1470.000000	81.861117 
1469.000000	81.846515 
1468.000000	81.835824 
1467.000000	81.810917 
1466.000000	81.740262 
1465.000000	81.623714 
1464.000000	81.509235 
1463.000000	81.433870 
1462.000000	81.386996 
1461.000000	81.345671 
1460.000000	81.286840 
1459.000000	81.183422 
1458.000000	81.016381 
1457.000000	80.837464 
1456.000000	80.754620 
1455.000000	80.753647 
1454.000000	80.752827 
1453.000000	80.731659 
1452.000000	80.707872 
1451.000000	80.698678 
1450.000000	80.710087 
1449.000000	80.747596 
1448.000000	80.818030 
1447.000000	80.911170 
1446.000000	80.999339 
1445.000000	81.064870 
1444.000000	81.112140 
1443.000000	81.154235 
1442.000000	81.198029 
1441.000000	81.241824 
1440.000000	81.280585 
1439.000000	81.312452 
1438.000000	81.340180 
1437.000000	81.376508 
1436.000000	81.433493 
1435.000000	81.482944 
1434.000000	81.485526 
1433.000000	81.456286 
1432.000000	81.436174 
1431.000000	81.444899 
1430.000000	81.469950 
1429.000000	81.493208 
1428.000000	81.511192 
1427.000000	81.522888 
1426.000000	81.526424 
1425.000000	81.523438 
1424.000000	81.522382 
1423.000000	81.524845 
1422.000000	81.510252 
1421.000000	81.467015 
1420.000000	81.418548 
1419.000000	81.407499 
1418.000000	81.435420 
1417.000000	81.461909 
1416.000000	81.478673 
1415.000000	81.505033 
1414.000000	81.543581 
1413.000000	81.578255 
1412.000000	81.600655 
1411.000000	81.614675 
1410.000000	81.622046 
1409.000000	81.629193 
1408.000000	81.655743 
1407.000000	81.713738 
1406.000000	81.791209 
1405.000000	81.861140 
1404.000000	81.907471 
1403.000000	81.930920 
1402.000000	81.937404 
1401.000000	81.940691 
1400.000000	81.959960 
1399.000000	82.005161 
1398.000000	82.060790 
1397.000000	82.107284 
1396.000000	82.154840 
1395.000000	82.226604 
1394.000000	82.314651 
1393.000000	82.379765 
1392.000000	82.408069 
1391.000000	82.418913 
1390.000000	82.429099 
1389.000000	82.441315 
1388.000000	82.461125 
1387.000000	82.503291 
1386.000000	82.564813 
1385.000000	82.612175 
1384.000000	82.619456 
1383.000000	82.595790 
1382.000000	82.570901 
1381.000000	82.566066 
1380.000000	82.579032 
1379.000000	82.598122 
1378.000000	82.621603 
1377.000000	82.655409 
1376.000000	82.700158 
1375.000000	82.748688 
1374.000000	82.792277 
1373.000000	82.820912 
1372.000000	82.826563 
1371.000000	82.813709 
1370.000000	82.800175 
1369.000000	82.800644 
1368.000000	82.817733 
1367.000000	82.846318 
1366.000000	82.882318 
1365.000000	82.927199 
1364.000000	82.982808 
1363.000000	83.045355 
1362.000000	83.106531 
1361.000000	83.155477 
1360.000000	83.185823 
1359.000000	83.203188 
1358.000000	83.219358 
1357.000000	83.239418 
1356.000000	83.259567 
1355.000000	83.275099 
1354.000000	83.286052 
1353.000000	83.295868 
1352.000000	83.309084 
1351.000000	83.331656 
1350.000000	83.370075 
1349.000000	83.416499 
1348.000000	83.449040 
1347.000000	83.452977 
1346.000000	83.431747 
1345.000000	83.393618 
1344.000000	83.341683 
1343.000000	83.284540 
1342.000000	83.244287 
1341.000000	83.239126 
1340.000000	83.260747 
1339.000000	83.280177 
1338.000000	83.277939 
1337.000000	83.261348 
1336.000000	83.254896 
1335.000000	83.281199 
1334.000000	83.344284 
1333.000000	83.419928 
1332.000000	83.468235 
1331.000000	83.469062 
1330.000000	83.442476 
1329.000000	83.421465 
1328.000000	83.411575 
1327.000000	83.393714 
1326.000000	83.360395 
1325.000000	83.326592 
1324.000000	83.307541 
1323.000000	83.303444 
1322.000000	83.310002 
1321.000000	83.330263 
1320.000000	83.368435 
1319.000000	83.420500 
1318.000000	83.477393 
1317.000000	83.531033 
1316.000000	83.571537 
1315.000000	83.587088 
1314.000000	83.575975 
1313.000000	83.554880 
1312.000000	83.545427 
1311.000000	83.553836 
1310.000000	83.571077 
1309.000000	83.589414 
1308.000000	83.610851 
1307.000000	83.640809 
1306.000000	83.680258 
1305.000000	83.721989 
1304.000000	83.753858 
1303.000000	83.766573 
1302.000000	83.760945 
1301.000000	83.745738 
1300.000000	83.727490 
1299.000000	83.707093 
1298.000000	83.688873 
1297.000000	83.686118 
1296.000000	83.709477 
1295.000000	83.752770 
1294.000000	83.796902 
1293.000000	83.827203 
1292.000000	83.841843 
1291.000000	83.846008 
1290.000000	83.845536 
1289.000000	83.845176 
1288.000000	83.844247 
1287.000000	83.832364 
1286.000000	83.798640 
1285.000000	83.751345 
1284.000000	83.722513 
1283.000000	83.743437 
1282.000000	83.812278 
1281.000000	83.889233 
1280.000000	83.928011 
1279.000000	83.914821 
1278.000000	83.876103 
1277.000000	83.848820 
1276.000000	83.846465 
1275.000000	83.856446 
1274.000000	83.864506 
1273.000000	83.870917 
1272.000000	83.878988 
1271.000000	83.876679 
1270.000000	83.841673 
1269.000000	83.766752 
1268.000000	83.673851 
1267.000000	83.599979 
1266.000000	83.569480 
1265.000000	83.578189 
1264.000000	83.600176 
1263.000000	83.608732 
1262.000000	83.595876 
1261.000000	83.576209 
1260.000000	83.571196 
1259.000000	83.589331 
1258.000000	83.621984 
1257.000000	83.657198 
1256.000000	83.690833 
1255.000000	83.722433 
1254.000000	83.748052 
1253.000000	83.764128 
1252.000000	83.774985 
1251.000000	83.789427 
1250.000000	83.809217 
1249.000000	83.825136 
1248.000000	83.824955 
1247.000000	83.802499 
1246.000000	83.759884 
1245.000000	83.706683 
1244.000000	83.658276 
1243.000000	83.630535 
1242.000000	83.632015 
1241.000000	83.660204 
1240.000000	83.703794 
1239.000000	83.747907 
1238.000000	83.782130 
1237.000000	83.808667 
1236.000000	83.839647 
1235.000000	83.881035 
1234.000000	83.921048 
1233.000000	83.939321 
1232.000000	83.925164 
1231.000000	83.882823 
1230.000000	83.825779 
1229.000000	83.776404 
1228.000000	83.764998 
1227.000000	83.809340 
1226.000000	83.888865 
1225.000000	83.954562 
1224.000000	83.975570 
1223.000000	83.966573 
1222.000000	83.960492 
1221.000000	83.965733 
1220.000000	83.964386 
1219.000000	83.945070 
1218.000000	83.920930 
1217.000000	83.914937 
1216.000000	83.938959 
1215.000000	83.986870 
1214.000000	84.037387 
1213.000000	84.064579 
1212.000000	84.057764 
1211.000000	84.032995 
1210.000000	84.015303 
1209.000000	84.008374 
1208.000000	83.992394 
1207.000000	83.953585 
1206.000000	83.904321 
1205.000000	83.868696 
1204.000000	83.857327 
1203.000000	83.862245 
1202.000000	83.867654 
1201.000000	83.859472 
1200.000000	83.832257 
1199.000000	83.794668 
1198.000000	83.763488 
1197.000000	83.746500 
1196.000000	83.735677 
1195.000000	83.721649 
1194.000000	83.709484 
1193.000000	83.713572 
1192.000000	83.739378 
1191.000000	83.773840 
1190.000000	83.791969 
1189.000000	83.773991 
1188.000000	83.722939 
1187.000000	83.666884 
1186.000000	83.635753 
1185.000000	83.632930 
1184.000000	83.637000 
1183.000000	83.631283 
1182.000000	83.619804 
1181.000000	83.611316 
1180.000000	83.602453 
1179.000000	83.586435 
1178.000000	83.565939 
1177.000000	83.545304 
1176.000000	83.520341 
1175.000000	83.488472 
1174.000000	83.460068 
1173.000000	83.446567 
1172.000000	83.445096 
1171.000000	83.446603 
1170.000000	83.449620 
1169.000000	83.452630 
1168.000000	83.443995 
1167.000000	83.417559 
1166.000000	83.389164 
1165.000000	83.376440 
1164.000000	83.369272 
1163.000000	83.344997 
1162.000000	83.309410 
1161.000000	83.294395 
1160.000000	83.311897 
1159.000000	83.338773 
1158.000000	83.355398 
1157.000000	83.371228 
1156.000000	83.396880 
1155.000000	83.415888 
1154.000000	83.407227 
1153.000000	83.380928 
1152.000000	83.369287 
1151.000000	83.391117 
1150.000000	83.440047 
1149.000000	83.496550 
1148.000000	83.533329 
1147.000000	83.520026 
1146.000000	83.447961 
1145.000000	83.349315 
1144.000000	83.272348 
1143.000000	83.237367 
1142.000000	83.230837 
1141.000000	83.238283 
1140.000000	83.261830 
1139.000000	83.301857 
1138.000000	83.341738 
1137.000000	83.361742 
1136.000000	83.355901 
1135.000000	83.326725 
1134.000000	83.273904 
1133.000000	83.197657 
1132.000000	83.106787 
1131.000000	83.015599 
1130.000000	82.935940 
1129.000000	82.874723 
1128.000000	82.831913 
1127.000000	82.796915 
1126.000000	82.756794 
1125.000000	82.715483 
1124.000000	82.694769 
1123.000000	82.705845 
1122.000000	82.728273 
1121.000000	82.730500 
1120.000000	82.704452 
1119.000000	82.664208 
1118.000000	82.616465 
1117.000000	82.554409 
1116.000000	82.484341 
1115.000000	82.435895 
1114.000000	82.431624 
1113.000000	82.460286 
1112.000000	82.494640 
1111.000000	82.524077 
1110.000000	82.552837 
1109.000000	82.575030 
1108.000000	82.576179 
1107.000000	82.561369 
1106.000000	82.562316 
1105.000000	82.605252 
1104.000000	82.681337 
1103.000000	82.756282 
1102.000000	82.802004 
1101.000000	82.812867 
1100.000000	82.801986 
1099.000000	82.786155 
1098.000000	82.774702 
1097.000000	82.759346 
1096.000000	82.722123 
1095.000000	82.661956 
1094.000000	82.608691 
1093.000000	82.599184 
1092.000000	82.640935 
1091.000000	82.708787 
1090.000000	82.774495 
1089.000000	82.826598 
1088.000000	82.860793 
1087.000000	82.869262 
1086.000000	82.852922 
1085.000000	82.833778 
1084.000000	82.837390 
1083.000000	82.862013 
1082.000000	82.877118 
1081.000000	82.857819 
1080.000000	82.812669 
1079.000000	82.771639 
1078.000000	82.753937 
1077.000000	82.756166 
1076.000000	82.766915 
1075.000000	82.779313 
1074.000000	82.787372 
1073.000000	82.784546 
1072.000000	82.774941 
1071.000000	82.775580 
1070.000000	82.795892 
1069.000000	82.821359 
1068.000000	82.829908 
1067.000000	82.820592 
1066.000000	82.813605 
1065.000000	82.823484 
1064.000000	82.844093 
1063.000000	82.858049 
1062.000000	82.847578 
1061.000000	82.799557 
1060.000000	82.720309 
1059.000000	82.648513 
1058.000000	82.630985 
1057.000000	82.675524 
1056.000000	82.745618 
1055.000000	82.809967 
1054.000000	82.874824 
1053.000000	82.949943 
1052.000000	83.004475 
1051.000000	82.990670 
1050.000000	82.909564 
1049.000000	82.823121 
1048.000000	82.793067 
1047.000000	82.827328 
1046.000000	82.890821 
1045.000000	82.948713 
1044.000000	82.987100 
1043.000000	83.004755 
1042.000000	83.003930 
1041.000000	82.992401 
1040.000000	82.983683 
1039.000000	82.985368 
1038.000000	82.988636 
1037.000000	82.980942 
1036.000000	82.974768 
1035.000000	83.009060 
1034.000000	83.102793 
1033.000000	83.213239 
1032.000000	83.266495 
1031.000000	83.237471 
1030.000000	83.178965 
1029.000000	83.159577 
1028.000000	83.192551 
1027.000000	83.239501 
1026.000000	83.264843 
1025.000000	83.266973 
1024.000000	83.266168 
1023.000000	83.279594 
1022.000000	83.304347 
1021.000000	83.317240 
1020.000000	83.300418 
1019.000000	83.270022 
1018.000000	83.260282 
1017.000000	83.273602 
1016.000000	83.275121 
1015.000000	83.252153 
1014.000000	83.247581 
1013.000000	83.306710 
1012.000000	83.415300 
1011.000000	83.518928 
1010.000000	83.582651 
1009.000000	83.606667 
1008.000000	83.610694 
1007.000000	83.627733 
1006.000000	83.664300 
1005.000000	83.619853 
1004.000000	83.316385 
1003.000000	82.723342 
1002.000000	82.129378 
1001.000000	81.953529 
1000.000000	82.338564 
999.000000	 82.996884 
998.000000	 83.506266 
997.000000	 83.703995 
996.000000	 83.721467 
995.000000	 83.719667 
994.000000	 83.728915 
993.000000	 83.723015 
992.000000	 83.715485 
991.000000	 83.733312 
990.000000	 83.765133 
989.000000	 83.783965 
988.000000	 83.788520 
987.000000	 83.793252 
986.000000	 83.801779 
985.000000	 83.808876 
984.000000	 83.808518 
983.000000	 83.789705 
982.000000	 83.747072 
981.000000	 83.703142 
980.000000	 83.693987 
979.000000	 83.722738 
978.000000	 83.751779 
977.000000	 83.752451 
976.000000	 83.738516 
975.000000	 83.736990 
974.000000	 83.749941 
973.000000	 83.763304 
972.000000	 83.773459 
971.000000	 83.782057 
970.000000	 83.776456 
969.000000	 83.738789 
968.000000	 83.672813 
967.000000	 83.606014 
966.000000	 83.563417 
965.000000	 83.547295 
964.000000	 83.541936 
963.000000	 83.531949 
962.000000	 83.515734 
961.000000	 83.503912 
960.000000	 83.504723 
959.000000	 83.512625 
958.000000	 83.514487 
957.000000	 83.503964 
956.000000	 83.483995 
955.000000	 83.458504 
954.000000	 83.429266 
953.000000	 83.397381 
952.000000	 83.358971 
951.000000	 83.304397 
950.000000	 83.233854 
949.000000	 83.168965 
948.000000	 83.132523 
947.000000	 83.117073 
946.000000	 83.090050 
945.000000	 83.033803 
944.000000	 82.966562 
943.000000	 82.918314 
942.000000	 82.897813 
941.000000	 82.889142 
940.000000	 82.871172 
939.000000	 82.835455 
938.000000	 82.791802 
937.000000	 82.757363 
936.000000	 82.733632 
935.000000	 82.698875 
934.000000	 82.636569 
933.000000	 82.567089 
932.000000	 82.530782 
931.000000	 82.537252 
930.000000	 82.552096 
929.000000	 82.541860 
928.000000	 82.513266 
927.000000	 82.495154 
926.000000	 82.496468 
925.000000	 82.497965 
924.000000	 82.477624 
923.000000	 82.430874 
922.000000	 82.369796 
921.000000	 82.312413 
920.000000	 82.271857 
919.000000	 82.250912 
918.000000	 82.246178 
917.000000	 82.253893 
916.000000	 82.264488 
915.000000	 82.256173 
914.000000	 82.210215 
913.000000	 82.135377 
912.000000	 82.061780 
911.000000	 82.005410 
910.000000	 81.953414 
909.000000	 81.891350 
908.000000	 81.828476 
907.000000	 81.782202 
906.000000	 81.748682 
905.000000	 81.705627 
904.000000	 81.641872 
903.000000	 81.572338 
902.000000	 81.522186 
901.000000	 81.500997 
900.000000	 81.493682 
899.000000	 81.476202 
898.000000	 81.442308 
897.000000	 81.408918 
896.000000	 81.390138 
895.000000	 81.373546 
894.000000	 81.335850 
893.000000	 81.277635 
892.000000	 81.224967 
891.000000	 81.196001 
890.000000	 81.182286 
889.000000	 81.164944 
888.000000	 81.133407 
887.000000	 81.087125 
886.000000	 81.036633 
885.000000	 81.003534 
884.000000	 80.998076 
883.000000	 80.994546 
882.000000	 80.954227 
881.000000	 80.878982 
880.000000	 80.813378 
879.000000	 80.781774 
878.000000	 80.754736 
877.000000	 80.699042 
876.000000	 80.633294 
875.000000	 80.604449 
874.000000	 80.626142 
873.000000	 80.667079 
872.000000	 80.686807 
871.000000	 80.658203 
870.000000	 80.569433 
869.000000	 80.434453 
868.000000	 80.297812 
867.000000	 80.204951 
866.000000	 80.166597 
865.000000	 80.165698 
864.000000	 80.190238 
863.000000	 80.236214 
862.000000	 80.281210 
861.000000	 80.282593 
860.000000	 80.216309 
859.000000	 80.108215 
858.000000	 80.017735 
857.000000	 79.990091 
856.000000	 80.021050 
855.000000	 80.062635 
854.000000	 80.065350 
853.000000	 80.016806 
852.000000	 79.935241 
851.000000	 79.834469 
850.000000	 79.718496 
849.000000	 79.612987 
848.000000	 79.569778 
847.000000	 79.615466 
846.000000	 79.710347 
845.000000	 79.780609 
844.000000	 79.782753 
843.000000	 79.721794 
842.000000	 79.625869 
841.000000	 79.530286 
840.000000	 79.472479 
839.000000	 79.467630 
838.000000	 79.488146 
837.000000	 79.493111 
836.000000	 79.479075 
835.000000	 79.477086 
834.000000	 79.497896 
833.000000	 79.507165 
832.000000	 79.465322 
831.000000	 79.373619 
830.000000	 79.270467 
829.000000	 79.193877 
828.000000	 79.155350 
827.000000	 79.141129 
826.000000	 79.130016 
825.000000	 79.113211 
824.000000	 79.098781 
823.000000	 79.094606 
822.000000	 79.095187 
821.000000	 79.095712 
820.000000	 79.109405 
819.000000	 79.151942 
818.000000	 79.208925 
817.000000	 79.235922 
816.000000	 79.199889 
815.000000	 79.115997 
814.000000	 79.039080 
813.000000	 79.016278 
812.000000	 79.040549 
811.000000	 79.046774 
810.000000	 78.965506 
809.000000	 78.793648 
808.000000	 78.606303 
807.000000	 78.489411 
806.000000	 78.466157 
805.000000	 78.494939 
804.000000	 78.525934 
803.000000	 78.541900 
802.000000	 78.549516 
801.000000	 78.551240 
800.000000	 78.532050 
799.000000	 78.469228 
798.000000	 78.359113 
797.000000	 78.238324 
796.000000	 78.165936 
795.000000	 78.172609 
794.000000	 78.235199 
793.000000	 78.309260 
792.000000	 78.371625 
791.000000	 78.417880 
790.000000	 78.438199 
789.000000	 78.422989 
788.000000	 78.384114 
787.000000	 78.345095 
786.000000	 78.313049 
785.000000	 78.279861 
784.000000	 78.245310 
783.000000	 78.216933 
782.000000	 78.190139 
781.000000	 78.151787 
780.000000	 78.103616 
779.000000	 78.062408 
778.000000	 78.038676 
777.000000	 78.033194 
776.000000	 78.048642 
775.000000	 78.082052 
774.000000	 78.112265 
773.000000	 78.123382 
772.000000	 78.135357 
771.000000	 78.174446 
770.000000	 78.211245 
769.000000	 78.172312 
768.000000	 78.034003 
767.000000	 77.869953 
766.000000	 77.776217 
765.000000	 77.773123 
764.000000	 77.808365 
763.000000	 77.834298 
762.000000	 77.845712 
761.000000	 77.851080 
760.000000	 77.848432 
759.000000	 77.844291 
758.000000	 77.871601 
757.000000	 77.963237 
756.000000	 78.104558 
755.000000	 78.222307 
754.000000	 78.233617 
753.000000	 78.118368 
752.000000	 77.943939 
751.000000	 77.807580 
750.000000	 77.751626 
749.000000	 77.743160 
748.000000	 77.732879 
747.000000	 77.710421 
746.000000	 77.690984 
745.000000	 77.674584 
744.000000	 77.650789 
743.000000	 77.635053 
742.000000	 77.661212 
741.000000	 77.723454 
740.000000	 77.753164 
739.000000	 77.682354 
738.000000	 77.522800 
737.000000	 77.358514 
736.000000	 77.261415 
735.000000	 77.234048 
734.000000	 77.237778 
733.000000	 77.251759 
732.000000	 77.281961 
731.000000	 77.325736 
730.000000	 77.358789 
729.000000	 77.363104 
728.000000	 77.347460 
727.000000	 77.328790 
726.000000	 77.308149 
725.000000	 77.279864 
724.000000	 77.251288 
723.000000	 77.234479 
722.000000	 77.223734 
721.000000	 77.198247 
720.000000	 77.149252 
719.000000	 77.094351 
718.000000	 77.061715 
717.000000	 77.066907 
716.000000	 77.100360 
715.000000	 77.128566 
714.000000	 77.118508 
713.000000	 77.073316 
712.000000	 77.031993 
711.000000	 77.018285 
710.000000	 77.003027 
709.000000	 76.941145 
708.000000	 76.841932 
707.000000	 76.776524 
706.000000	 76.805190 
705.000000	 76.912947 
704.000000	 77.023097 
703.000000	 77.058867 
702.000000	 76.989472 
701.000000	 76.841536 
700.000000	 76.684376 
699.000000	 76.592011 
698.000000	 76.592106 
697.000000	 76.643230 
696.000000	 76.671099 
695.000000	 76.632011 
694.000000	 76.541303 
693.000000	 76.443790 
692.000000	 76.366052 
691.000000	 76.303061 
690.000000	 76.238663 
689.000000	 76.160839 
688.000000	 76.058425 
687.000000	 75.930307 
686.000000	 75.817656 
685.000000	 75.795780 
684.000000	 75.887364 
683.000000	 75.995746 
682.000000	 75.975846 
681.000000	 75.783286 
680.000000	 75.521177 
679.000000	 75.325986 
678.000000	 75.246040 
677.000000	 75.237202 
676.000000	 75.230463 
675.000000	 75.156245 
674.000000	 74.980511 
673.000000	 74.766472 
672.000000	 74.634751 
671.000000	 74.630795 
670.000000	 74.687997 
669.000000	 74.705002 
668.000000	 74.591359 
667.000000	 74.359971 
666.000000	 74.155465 
665.000000	 73.959316 
664.000000	 73.681131 
663.000000	 73.365938 
662.000000	 73.122762 
661.000000	 72.996011 
660.000000	 72.938771 
659.000000	 72.862090 
658.000000	 72.680645 
657.000000	 72.380084 
656.000000	 72.066861 
655.000000	 71.862726 
654.000000	 71.748590 
653.000000	 71.592816 
652.000000	 71.340523 
651.000000	 71.078262 
650.000000	 70.890112 

